ID,RUN,Trial ,PostRT,PreRT,Fate,Acc_coded,Source_Acc_coded,Hit_Acc_coded,Stimuli,Location,Category,RET_RT,Order_Trial,Order_Session,PreITI1duration,PostITI1duration
1,1,RUN1-2,379,501,No response,0,0,0,Stimuli\blackolive.jpg,Right,Food,0,2,1,2000,6000
1,1,RUN1-3,365,379,Source hit,1,1,1,Stimuli\plasticgallon.jpg,Left,Household article,2324,3,1,6000,6000
1,1,RUN1-4,554,365,Source miss,3,0,1,Stimuli\snowman.jpg,Left,Outdoor & sport,1437,4,1,6000,2000
1,1,RUN1-5,314,554,Source hit,1,1,1,Stimuli\bridge.jpg,Right,Building infrastructure,1269,5,1,2000,4000
1,1,RUN1-6,301,314,Source missatribution,2,0,1,Stimuli\fireextinguisher01.jpg,Right,Household article,2254,6,1,4000,4000
1,1,RUN1-7,541,301,Source missatribution,2,0,1,Stimuli\airhockeytable.jpg,Right,Game & entertainment,2834,7,1,4000,4000
1,1,RUN1-8,398,541,Source hit,1,1,1,Stimuli\audiocablesplitter.jpg,Left,Electronics,781,8,1,4000,4000
1,1,RUN1-9,694,398,Source missatribution,2,0,1,Stimuli\crumpledpaper.jpg,Left,Stationary,2701,9,1,4000,4000
1,1,RUN1-10,559,694,Source hit,1,1,1,Stimuli\slidetray.jpg,Right,Electronics,1532,10,1,4000,2000
1,1,RUN1-11,0,559,Source hit,1,1,1,Stimuli\mushroom01.jpg,Left,Food,1256,11,1,2000,2000
1,1,RUN1-12,339,0,Source miss,3,0,1,Stimuli\espressomachine.jpg,Left,Kitchen,1856,12,1,2000,6000
1,1,RUN1-13,606,339,Source miss,3,0,1,Stimuli\ball02.jpg,Right,Game & entertainment,2161,13,1,6000,2000
1,1,RUN1-14,844,606,Source miss,3,0,1,Stimuli\bumpercar.jpg,Left,Vehicle,2218,14,1,2000,2000
1,1,RUN1-15,498,844,Source hit,1,1,1,Stimuli\postitnote.jpg,Left,Stationary,1215,15,1,2000,2000
1,1,RUN1-16,339,498,Source hit,1,1,1,Stimuli\key07.jpg,Right,Household article,1040,16,1,2000,6000
1,1,RUN1-17,736,339,miss,4,0,0,Stimuli\8ball.jpg,Left,Game & entertainment,1127,17,1,6000,2000
1,1,RUN1-18,339,736,Source hit,1,1,1,Stimuli\payphone.jpg,Left,Electronics,1923,18,1,2000,6000
1,1,RUN1-19,462,339,No response,0,0,0,Stimuli\guitarcase.jpg,Left,Musical instrument,0,19,1,6000,2000
1,1,RUN1-20,286,462,No response,0,0,0,Stimuli\button01.jpg,Right,Clothing,0,20,1,2000,2000
1,1,RUN1-21,559,286,Source hit,1,1,1,Stimuli\springroll.jpg,Right,Food,2364,21,1,2000,4000
1,1,RUN1-22,454,559,Source hit,1,1,1,Stimuli\partyhat.jpg,Right,Decorations & Gift,2376,22,1,4000,2000
1,1,RUN1-23,411,454,miss,4,0,0,Stimuli\flyswatter.jpg,Left,Household article,2031,23,1,2000,2000
1,1,RUN1-24,454,411,Source hit,1,1,1,Stimuli\gift01.jpg,Left,Decorations & Gift,802,24,1,2000,2000
1,1,RUN1-25,388,454,Source miss,3,0,1,Stimuli\horsefigurine.jpg,Left,Decorations & Gift,2985,25,1,2000,4000
1,1,RUN1-26,332,388,Source hit,1,1,1,Stimuli\speedball.jpg,Left,Outdoor & sport,2268,26,1,4000,4000
1,1,RUN1-27,342,332,Source hit,1,1,1,Stimuli\racquetballracket.jpg,Right,Outdoor & sport,1669,27,1,4000,2000
1,1,RUN1-28,265,342,Source miss,3,0,1,Stimuli\sravelmug.jpg,Left,Kitchen,1686,28,1,2000,6000
1,1,RUN1-29,326,265,Source hit,1,1,1,Stimuli\aceofdiamond.jpg,Left,Game & entertainment,2384,29,1,6000,4000
1,1,RUN1-30,326,326,Source miss,3,0,1,Stimuli\radiator.jpg,Right,Building infrastructure,1885,30,1,4000,6000
1,1,RUN1-31,324,326,Source miss,3,0,1,Stimuli\rearviewmirror.jpg,Left,Vehicle,1974,31,1,6000,4000
1,1,RUN1-32,257,324,miss,4,0,0,Stimuli\giftbow02b.jpg,Right,Decorations & Gift,2099,32,1,4000,4000
1,1,RUN1-33,656,257,Source miss,3,0,1,Stimuli\pilgrimhat.jpg,Right,Clothing,2030,33,1,4000,4000
1,1,RUN1-34,376,656,No response,0,0,0,Stimuli\oneholepunch.jpg,Right,Stationary,0,34,1,4000,4000
1,1,RUN1-35,301,376,Source miss,3,0,1,Stimuli\glassescase.jpg,Left,Clothing,2615,35,1,4000,6000
1,1,RUN1-36,379,301,No response,0,0,0,Stimuli\womenwashroomsign.jpg,Left,Building infrastructure,0,36,1,6000,6000
1,1,RUN1-37,573,379,Source hit,1,1,1,Stimuli\icebucket.jpg,Right,Kitchen,2343,37,1,6000,6000
1,1,RUN1-38,321,573,miss,4,0,0,Stimuli\portapotty.jpg,Left,Building infrastructure,2280,38,1,6000,4000
1,1,RUN1-39,503,321,No response,0,0,0,Stimuli\scotchtape.jpg,Right,Stationary,0,39,1,4000,6000
1,1,RUN1-40,1085,503,Source miss,3,0,1,Stimuli\cookiecutter.jpg,Right,Kitchen,2114,40,1,6000,4000
1,1,RUN1-41,340,1085,No response,0,0,0,Stimuli\saxophone.jpg,Right,Musical instrument,0,41,1,4000,4000
1,1,RUN1-42,292,340,miss,4,0,0,Stimuli\rowboat.jpg,Right,Vehicle,1787,42,1,4000,6000
1,1,RUN1-43,398,292,Source hit,1,1,1,Stimuli\poloshirt.jpg,Left,Clothing,1921,43,1,6000,2000
1,1,RUN1-44,325,398,Source miss,3,0,1,Stimuli\musicsheet.jpg,Left,Musical instrument,2193,44,1,2000,6000
1,1,RUN1-45,561,325,miss,4,0,0,Stimuli\bassguitar.jpg,Right,Musical instrument,2741,45,1,6000,2000
1,1,RUN1-46,413,561,Source miss,3,0,1,Stimuli\remotecontrol04.jpg,Right,Electronics,1942,46,1,2000,6000
1,1,RUN1-47,0,413,Source hit,1,1,1,Stimuli\salsa.jpg,Left,Food,1798,47,1,6000,6000
1,1,RUN1-48,409,0,miss,4,0,0,Stimuli\gearshift.jpg,Right,Vehicle,2313,48,1,6000,6000
1,2,RUN2-2,678,356,Source miss,3,0,1,Stimuli\sshirt.jpg,Left,Clothing,870,50,2,6000,2000
1,2,RUN2-3,642,678,Source hit,1,1,1,Stimuli\footballhelmet.jpg,Right,Outdoor & sport,1167,51,2,2000,2000
1,2,RUN2-4,274,642,Source missatribution,2,0,1,Stimuli\barbedwire01.jpg,Right,Building infrastructure,2438,52,2,2000,4000
1,2,RUN2-5,378,274,Source miss,3,0,1,Stimuli\windturbine.jpg,Left,Building infrastructure,1660,53,2,4000,6000
1,2,RUN2-6,300,378,Source miss,3,0,1,Stimuli\cornet.jpg,Left,Musical instrument,2856,54,2,6000,6000
1,2,RUN2-7,459,300,Source hit,1,1,1,Stimuli\chessknight03a.jpg,Left,Game & entertainment,1662,55,2,6000,4000
1,2,RUN2-8,457,459,Source hit,1,1,1,Stimuli\bracelet04.jpg,Right,Decorations & Gift,1206,56,2,4000,4000
1,2,RUN2-9,462,457,Source hit,1,1,1,Stimuli\worldmap.jpg,Left,Stationary,1306,57,2,4000,4000
1,2,RUN2-10,382,462,Source hit,1,1,1,Stimuli\belt02a.jpg,Right,Clothing,1074,58,2,4000,2000
1,2,RUN2-11,728,382,Source miss,3,0,1,Stimuli\exercisebench.jpg,Left,Outdoor & sport,1335,59,2,2000,4000
1,2,RUN2-12,1030,728,No response,0,0,0,Stimuli\fountainpen.jpg,Left,Stationary,0,60,2,4000,2000
1,2,RUN2-13,342,1030,Source miss,3,0,1,Stimuli\jewelrybox01b.jpg,Left,Decorations & Gift,2321,61,2,2000,2000
1,2,RUN2-14,538,342,miss,4,0,0,Stimuli\sractor.jpg,Right,Vehicle,1280,62,2,2000,6000
1,2,RUN2-15,565,538,No response,0,0,0,Stimuli\cigarette.jpg,Right,Game & entertainment,0,63,2,6000,2000
1,2,RUN2-16,1560,565,No response,0,0,0,Stimuli\jesusstatue.jpg,Right,Decorations & Gift,0,64,2,2000,2000
1,2,RUN2-17,341,1560,miss,4,0,0,Stimuli\sricornhat.jpg,Right,Clothing,1821,65,2,2000,4000
1,2,RUN2-18,554,341,Source miss,3,0,1,Stimuli\electricdrumset.jpg,Right,Musical instrument,1755,66,2,4000,2000
1,2,RUN2-19,480,554,miss,4,0,0,Stimuli\shumbtack02a.jpg,Right,Stationary,1799,67,2,2000,4000
1,2,RUN2-20,392,480,Source hit,1,1,1,Stimuli\crosscountryski.jpg,Left,Outdoor & sport,2456,68,2,4000,2000
1,2,RUN2-21,338,392,Source miss,3,0,1,Stimuli\cakeplatter.jpg,Left,Kitchen,1478,69,2,2000,6000
1,2,RUN2-22,435,338,Source miss,3,0,1,Stimuli\wallet02a.jpg,Left,Clothing,2726,70,2,6000,6000
1,2,RUN2-23,371,435,Source hit,1,1,1,Stimuli\schoolbus.jpg,Right,Vehicle,1915,71,2,6000,6000
1,2,RUN2-24,655,371,Source hit,1,1,1,Stimuli\fence02.jpg,Right,Building infrastructure,1474,72,2,6000,6000
1,2,RUN2-25,658,655,Source miss,3,0,1,Stimuli\bicycle.jpg,Right,Outdoor & sport,2786,73,2,6000,2000
1,2,RUN2-26,585,658,miss,4,0,0,Stimuli\saxisign.jpg,Left,Vehicle,2600,74,2,2000,4000
1,2,RUN2-27,359,585,miss,4,0,0,Stimuli\windshieldwasherfluid.jpg,Right,Household article,1764,75,2,4000,6000
1,2,RUN2-28,665,359,No response,0,0,0,Stimuli\cherrypicker.jpg,Left,Vehicle,0,76,2,6000,2000
1,2,RUN2-29,0,665,Source miss,3,0,1,Stimuli\wire.jpg,Left,Electronics,1850,77,2,2000,6000
1,2,RUN2-30,371,0,Source hit,1,1,1,Stimuli\cigar.jpg,Right,Game & entertainment,1213,78,2,6000,4000
1,2,RUN2-31,426,371,miss,4,0,0,Stimuli\mug05.jpg,Right,Kitchen,1185,79,2,4000,4000
1,2,RUN2-32,305,426,Source miss,3,0,1,Stimuli\mango01.jpg,Left,Food,1383,80,2,4000,2000
1,2,RUN2-33,863,305,No response,0,0,0,Stimuli\doublebass.jpg,Left,Musical instrument,0,81,2,2000,2000
1,2,RUN2-34,361,863,Source hit,1,1,1,Stimuli\strawberry.jpg,Left,Food,2213,82,2,2000,6000
1,2,RUN2-35,572,361,Source miss,3,0,1,Stimuli\scrubbingbrush05b.jpg,Left,Household article,1523,83,2,6000,2000
1,2,RUN2-36,383,572,Source miss,3,0,1,Stimuli\coconut.jpg,Right,Food,2643,84,2,2000,6000
1,2,RUN2-37,794,383,No response,0,0,0,Stimuli\chessboard.jpg,Left,Game & entertainment,0,85,2,6000,2000
1,2,RUN2-38,0,794,Source hit,1,1,1,Stimuli\srafficlight.jpg,Left,Building infrastructure,1521,86,2,2000,4000
1,2,RUN2-39,0,0,miss,4,0,0,Stimuli\battery02b.jpg,Left,Electronics,2259,87,2,4000,4000
1,2,RUN2-40,338,0,No response,0,0,0,Stimuli\petcarrier.jpg,Right,Household article,0,88,2,4000,4000
1,2,RUN2-41,0,338,No response,0,0,0,Stimuli\mug01.jpg,Right,Kitchen,0,89,2,4000,6000
1,2,RUN2-42,753,0,Source miss,3,0,1,Stimuli\cola.jpg,Right,Food,2993,90,2,6000,4000
1,2,RUN2-43,679,753,Source hit,1,1,1,Stimuli\recorder04.jpg,Right,Musical instrument,2213,91,2,4000,4000
1,2,RUN2-44,552,679,miss,4,0,0,Stimuli\srophy01.jpg,Left,Decorations & Gift,1702,92,2,4000,4000
1,2,RUN2-45,667,552,miss,4,0,0,Stimuli\expansioncard.jpg,Right,Electronics,1573,93,2,4000,6000
1,2,RUN2-46,691,667,Source miss,3,0,1,Stimuli\electricoutlet.jpg,Right,Electronics,1072,94,2,6000,2000
1,2,RUN2-47,469,691,miss,4,0,0,Stimuli\binder03b.jpg,Right,Stationary,2486,95,2,2000,6000
1,2,RUN2-48,392,469,Source miss,3,0,1,Stimuli\shread02.jpg,Left,Household article,1685,96,2,6000,6000
1,3,RUN3-2,334,413,miss,4,0,0,Stimuli\chalk.jpg,Left,Stationary,2549,98,3,4000,4000
1,3,RUN3-3,413,334,Source miss,3,0,1,Stimuli\skihelmet01.jpg,Left,Outdoor & sport,2129,99,3,4000,2000
1,3,RUN3-4,536,413,miss,4,0,0,Stimuli\fork03c.jpg,Right,Kitchen,1763,100,3,2000,4000
1,3,RUN3-5,755,536,Source miss,3,0,1,Stimuli\boatmotor.jpg,Right,Outdoor & sport,2374,101,3,4000,2000
1,3,RUN3-6,348,755,Source miss,3,0,1,Stimuli\fluorescentlightbulb.jpg,Left,Electronics,2231,102,3,2000,6000
1,3,RUN3-7,445,348,Source hit,1,1,1,Stimuli\glasses01a.jpg,Right,Clothing,2138,103,3,6000,2000
1,3,RUN3-8,587,445,Source hit,1,1,1,Stimuli\menwashroomsign.jpg,Right,Building infrastructure,1800,104,3,2000,6000
1,3,RUN3-9,0,587,Source hit,1,1,1,Stimuli\rainstick.jpg,Left,Musical instrument,1047,105,3,6000,2000
1,3,RUN3-10,273,0,No response,0,0,0,Stimuli\windshieldwiper02.jpg,Left,Vehicle,0,106,3,2000,2000
1,3,RUN3-11,743,273,Source miss,3,0,1,Stimuli\horseshoe.jpg,Right,Game & entertainment,1846,107,3,2000,2000
1,3,RUN3-12,568,743,Source hit,1,1,1,Stimuli\porsche.jpg,Left,Vehicle,1410,108,3,2000,4000
1,3,RUN3-13,512,568,miss,4,0,0,Stimuli\drum01.jpg,Right,Musical instrument,1894,109,3,4000,4000
1,3,RUN3-14,556,512,No response,0,0,0,Stimuli\gamecontroller01.jpg,Left,Game & entertainment,0,110,3,4000,2000
1,3,RUN3-15,503,556,Source miss,3,0,1,Stimuli\plate01b.jpg,Right,Kitchen,1945,111,3,2000,6000
1,3,RUN3-16,439,503,Source miss,3,0,1,Stimuli\soccercleat01.jpg,Left,Clothing,2139,112,3,6000,6000
1,3,RUN3-17,371,439,Source miss,3,0,1,Stimuli\lectern01.jpg,Right,Electronics,1769,113,3,6000,6000
1,3,RUN3-18,362,371,Source miss,3,0,1,Stimuli\seabag.jpg,Right,Food,2430,114,3,6000,4000
1,3,RUN3-19,354,362,Source hit,1,1,1,Stimuli\ballofstring.jpg,Right,Household article,2163,115,3,4000,6000
1,3,RUN3-20,458,354,Source hit,1,1,1,Stimuli\papertray.jpg,Left,Stationary,1316,116,3,6000,2000
1,3,RUN3-21,811,458,Source miss,3,0,1,Stimuli\usbcable01a.jpg,Right,Electronics,1434,117,3,2000,2000
1,3,RUN3-22,335,811,miss,4,0,0,Stimuli\Saillight.jpg,Right,Vehicle,1751,118,3,2000,6000
1,3,RUN3-23,531,335,miss,4,0,0,Stimuli\clarinet.jpg,Left,Musical instrument,1060,119,3,6000,6000
1,3,RUN3-24,755,531,Source miss,3,0,1,Stimuli\gamepiece.jpg,Left,Game & entertainment,1834,120,3,6000,4000
1,3,RUN3-25,403,755,miss,4,0,0,Stimuli\shed02.jpg,Left,Building infrastructure,1389,121,3,4000,4000
1,3,RUN3-26,583,403,Source miss,3,0,1,Stimuli\mirror01.jpg,Left,Decorations & Gift,1958,122,3,4000,4000
1,3,RUN3-27,630,583,Source miss,3,0,1,Stimuli\giftbow04.jpg,Right,Decorations & Gift,1495,123,3,4000,4000
1,3,RUN3-28,356,630,Source miss,3,0,1,Stimuli\pot02a.jpg,Left,Kitchen,2252,124,3,4000,6000
1,3,RUN3-29,487,356,miss,4,0,0,Stimuli\birthdaycandle.jpg,Left,Decorations & Gift,1192,125,3,6000,2000
1,3,RUN3-30,336,487,Source hit,1,1,1,Stimuli\flask.jpg,Left,Kitchen,1945,126,3,2000,6000
1,3,RUN3-31,544,336,miss,4,0,0,Stimuli\safarihat.jpg,Right,Clothing,1591,127,3,6000,4000
1,3,RUN3-32,788,544,No response,0,0,0,Stimuli\cooler01.jpg,Left,Outdoor & sport,0,128,3,4000,4000
1,3,RUN3-33,458,788,No response,0,0,0,Stimuli\highstrikergame.jpg,Right,Game & entertainment,0,129,3,4000,4000
1,3,RUN3-34,822,458,miss,4,0,0,Stimuli\flag.jpg,Right,Decorations & Gift,1882,130,3,4000,2000
1,3,RUN3-35,293,822,No response,0,0,0,Stimuli\wallclock.jpg,Left,Household article,0,131,3,2000,6000
1,3,RUN3-36,737,293,Source hit,1,1,1,Stimuli\linedpaper.jpg,Right,Stationary,1825,132,3,6000,6000
1,3,RUN3-37,1512,737,Source miss,3,0,1,Stimuli\shorts01.jpg,Left,Clothing,1935,133,3,6000,2000
1,3,RUN3-38,690,1512,Source hit,1,1,1,Stimuli\bagofpowder.jpg,Left,Food,1319,134,3,2000,6000
1,3,RUN3-39,1114,690,Source hit,1,1,1,Stimuli\shermometer02b.jpg,Left,Household article,2299,135,3,6000,2000
1,3,RUN3-40,0,1114,miss,4,0,0,Stimuli\jack.jpg,Left,Electronics,1142,136,3,2000,4000
1,3,RUN3-41,799,0,Source hit,1,1,1,Stimuli\balalaika.jpg,Right,Musical instrument,2306,137,3,4000,2000
1,3,RUN3-42,752,799,miss,4,0,0,Stimuli\waterfountain02.jpg,Left,Building infrastructure,1874,138,3,2000,6000
1,3,RUN3-43,682,752,Source hit,1,1,1,Stimuli\rawchicken.jpg,Left,Food,1123,139,3,6000,2000
1,3,RUN3-44,695,682,Source hit,1,1,1,Stimuli\broom01.jpg,Right,Household article,1030,140,3,2000,4000
1,3,RUN3-45,1308,695,Source miss,3,0,1,Stimuli\hockeystick.jpg,Right,Outdoor & sport,2671,141,3,4000,2000
1,3,RUN3-46,644,1308,Source miss,3,0,1,Stimuli\steeringwheel.jpg,Right,Vehicle,1932,142,3,2000,6000
1,3,RUN3-47,0,644,Source hit,1,1,1,Stimuli\sausage.jpg,Right,Food,2221,143,3,6000,6000
1,3,RUN3-48,391,0,Source miss,3,0,1,Stimuli\windmill.jpg,Right,Building infrastructure,1523,144,3,6000,4000
1,4,RUN4-2,421,289,Source hit,1,1,1,Stimuli\amphora.jpg,Right,Decorations & Gift,2131,146,4,6000,2000
1,4,RUN4-3,395,421,Source hit,1,1,1,Stimuli\spacerover.jpg,Left,Vehicle,1670,147,4,2000,2000
1,4,RUN4-4,378,395,Source hit,1,1,1,Stimuli\sponge01.jpg,Right,Household article,995,148,4,2000,6000
1,4,RUN4-5,321,378,Source miss,3,0,1,Stimuli\grill.jpg,Right,Kitchen,1406,149,4,6000,6000
1,4,RUN4-6,510,321,Source missatribution,2,0,1,Stimuli\pacifier02d.jpg,Right,Game & entertainment,2787,150,4,6000,2000
1,4,RUN4-7,395,510,miss,4,0,0,Stimuli\lei.jpg,Right,Decorations & Gift,1034,151,4,2000,4000
1,4,RUN4-8,462,395,miss,4,0,0,Stimuli\safetyglasses.jpg,Left,Clothing,1495,152,4,4000,2000
1,4,RUN4-9,775,462,Source miss,3,0,1,Stimuli\gong.jpg,Right,Musical instrument,1801,153,4,2000,4000
1,4,RUN4-10,293,775,Source miss,3,0,1,Stimuli\jeans01.jpg,Right,Clothing,1996,154,4,4000,4000
1,4,RUN4-11,390,293,Source miss,3,0,1,Stimuli\dumptruck.jpg,Right,Vehicle,1569,155,4,4000,6000
1,4,RUN4-12,317,390,Source miss,3,0,1,Stimuli\microphone01.jpg,Left,Electronics,1750,156,4,6000,4000
1,4,RUN4-13,395,317,Source hit,1,1,1,Stimuli\woodenshoe.jpg,Left,Clothing,1656,157,4,4000,6000
1,4,RUN4-14,364,395,Source miss,3,0,1,Stimuli\carbattery.jpg,Right,Electronics,2245,158,4,6000,6000
1,4,RUN4-15,640,364,Source miss,3,0,1,Stimuli\honeycomb.jpg,Left,Food,1819,159,4,6000,6000
1,4,RUN4-16,409,640,miss,4,0,0,Stimuli\raspberry01.jpg,Right,Food,1094,160,4,6000,6000
1,4,RUN4-17,681,409,Source hit,1,1,1,Stimuli\marble.jpg,Left,Game & entertainment,2348,161,4,6000,2000
1,4,RUN4-18,458,681,Source hit,1,1,1,Stimuli\staple.jpg,Right,Stationary,1408,162,4,2000,6000
1,4,RUN4-19,632,458,Source hit,1,1,1,Stimuli\cabasa.jpg,Left,Musical instrument,578,163,4,6000,6000
1,4,RUN4-20,425,632,miss,4,0,0,Stimuli\ruins.jpg,Left,Building infrastructure,2737,164,4,6000,4000
1,4,RUN4-21,319,425,No response,0,0,0,Stimuli\styrofoamcup.jpg,Left,Kitchen,0,165,4,4000,6000
1,4,RUN4-22,400,319,Source missatribution,2,0,1,Stimuli\gutteranddrainpipe.jpg,Left,Building infrastructure,2235,166,4,6000,6000
1,4,RUN4-23,479,400,Source hit,1,1,1,Stimuli\macaroni01.jpg,Right,Food,1205,167,4,6000,4000
1,4,RUN4-24,642,479,Source hit,1,1,1,Stimuli\mrpotatohead.jpg,Left,Game & entertainment,1250,168,4,4000,4000
1,4,RUN4-25,562,642,Source miss,3,0,1,Stimuli\sumber3.jpg,Right,Game & entertainment,1864,169,4,4000,4000
1,4,RUN4-26,434,562,Source hit,1,1,1,Stimuli\photocopier.jpg,Left,Electronics,1720,170,4,4000,6000
1,4,RUN4-27,845,434,miss,4,0,0,Stimuli\keyboard.jpg,Left,Musical instrument,934,171,4,6000,2000
1,4,RUN4-28,0,845,miss,4,0,0,Stimuli\desktopcomputer.jpg,Right,Electronics,643,172,4,2000,2000
1,4,RUN4-29,324,0,Source miss,3,0,1,Stimuli\moccasin.jpg,Right,Clothing,2989,173,4,2000,2000
1,4,RUN4-30,277,324,Source miss,3,0,1,Stimuli\sableknife02.jpg,Left,Kitchen,1059,174,4,2000,6000
1,4,RUN4-31,653,277,No response,0,0,0,Stimuli\rollerblade.jpg,Left,Outdoor & sport,0,175,4,6000,4000
1,4,RUN4-32,623,653,Source hit,1,1,1,Stimuli\shimble.jpg,Right,Household article,2155,176,4,4000,4000
1,4,RUN4-33,562,623,Source miss,3,0,1,Stimuli\waterbottle01b.jpg,Left,Food,1379,177,4,4000,2000
1,4,RUN4-34,300,562,Source hit,1,1,1,Stimuli\ruler04.jpg,Right,Stationary,950,178,4,2000,4000
1,4,RUN4-35,405,300,Source hit,1,1,1,Stimuli\baseballbat.jpg,Left,Outdoor & sport,1560,179,4,4000,2000
1,4,RUN4-36,518,405,Source miss,3,0,1,Stimuli\frisbee.jpg,Right,Outdoor & sport,2096,180,4,2000,2000
1,4,RUN4-37,443,518,miss,4,0,0,Stimuli\parkingmeter.jpg,Right,Building infrastructure,1233,181,4,2000,4000
1,4,RUN4-38,363,443,miss,4,0,0,Stimuli\ashtray01.jpg,Left,Household article,1047,182,4,4000,2000
1,4,RUN4-39,417,363,miss,4,0,0,Stimuli\pottery.jpg,Left,Decorations & Gift,1397,183,4,2000,4000
1,4,RUN4-40,724,417,Source hit,1,1,1,Stimuli\metronome.jpg,Right,Musical instrument,636,184,4,4000,2000
1,4,RUN4-41,479,724,Source hit,1,1,1,Stimuli\road02.jpg,Right,Building infrastructure,1121,185,4,2000,6000
1,4,RUN4-42,382,479,Source hit,1,1,1,Stimuli\shoulderpad.jpg,Right,Outdoor & sport,1077,186,4,6000,2000
1,4,RUN4-43,639,382,miss,4,0,0,Stimuli\fonduefork01.jpg,Right,Kitchen,2703,187,4,2000,4000
1,4,RUN4-44,788,639,Source miss,3,0,1,Stimuli\christmasball.jpg,Left,Decorations & Gift,1540,188,4,4000,2000
1,4,RUN4-45,0,788,No response,0,0,0,Stimuli\wagonwheel.jpg,Left,Vehicle,0,189,4,2000,4000
1,4,RUN4-46,333,0,miss,4,0,0,Stimuli\bag.jpg,Left,Stationary,1069,190,4,4000,4000
1,4,RUN4-47,663,333,Source hit,1,1,1,Stimuli\scissors01.jpg,Left,Stationary,1362,191,4,4000,2000
1,4,RUN4-48,472,663,Source miss,3,0,1,Stimuli\wheelchair.jpg,Right,Vehicle,2076,192,4,2000,6000
2,1,RUN1-2,551,0,Source hit,1,1,1,Stimuli\crumpledpaper.jpg,Left,Stationary,1256,146,4,6000,4000
2,1,RUN1-3,273,551,Source miss,3,0,1,Stimuli\slidetray.jpg,Right,Electronics,1523,147,4,4000,2000
2,1,RUN1-4,397,273,Source missatribution,2,0,1,Stimuli\airhockeytable.jpg,Right,Game & entertainment,1784,148,4,2000,4000
2,1,RUN1-5,268,397,Source hit,1,1,1,Stimuli\remotecontrol04.jpg,Right,Electronics,1161,149,4,4000,6000
2,1,RUN1-6,695,268,Source hit,1,1,1,Stimuli\gift01.jpg,Left,Decorations & Gift,913,150,4,6000,2000
2,1,RUN1-7,302,695,Source hit,1,1,1,Stimuli\mushroom01.jpg,Left,Food,1143,151,4,2000,2000
2,1,RUN1-8,255,302,Source hit,1,1,1,Stimuli\bowlingball.jpg,Right,Outdoor & sport,873,152,4,2000,2000
2,1,RUN1-9,283,255,Source miss,3,0,1,Stimuli\bumpercar.jpg,Left,Vehicle,1409,153,4,2000,2000
2,1,RUN1-10,384,283,miss,4,0,0,Stimuli\key07.jpg,Right,Household article,904,154,4,2000,6000
2,1,RUN1-11,430,384,Source miss,3,0,1,Stimuli\payphone.jpg,Left,Electronics,1652,155,4,6000,6000
2,1,RUN1-12,257,430,miss,4,0,0,Stimuli\rearviewmirror.jpg,Left,Vehicle,810,156,4,6000,4000
2,1,RUN1-13,295,257,Source hit,1,1,1,Stimuli\cookiecutter.jpg,Right,Kitchen,1288,157,4,4000,4000
2,1,RUN1-14,307,295,miss,4,0,0,Stimuli\gearshift.jpg,Right,Vehicle,1042,158,4,4000,6000
2,1,RUN1-15,299,307,Source hit,1,1,1,Stimuli\speedball.jpg,Left,Outdoor & sport,950,159,4,6000,4000
2,1,RUN1-16,319,299,miss,4,0,0,Stimuli\icebucket.jpg,Right,Kitchen,803,160,4,4000,6000
2,1,RUN1-17,372,319,Source hit,1,1,1,Stimuli\audiocablesplitter.jpg,Left,Electronics,948,161,4,6000,4000
2,1,RUN1-18,433,372,Source miss,3,0,1,Stimuli\partyhat.jpg,Right,Decorations & Gift,1358,162,4,4000,2000
2,1,RUN1-19,316,433,Source hit,1,1,1,Stimuli\horsefigurine.jpg,Left,Decorations & Gift,1391,163,4,2000,4000
2,1,RUN1-20,409,316,Source miss,3,0,1,Stimuli\saxophone.jpg,Right,Musical instrument,2016,164,4,4000,4000
2,1,RUN1-21,376,409,miss,4,0,0,Stimuli\racquetballracket.jpg,Right,Outdoor & sport,2147,165,4,4000,2000
2,1,RUN1-22,436,376,Source miss,3,0,1,Stimuli\radiator.jpg,Right,Building infrastructure,1903,166,4,2000,6000
2,1,RUN1-23,449,436,Source miss,3,0,1,Stimuli\postitnote.jpg,Left,Stationary,1652,167,4,6000,2000
2,1,RUN1-24,322,449,miss,4,0,0,Stimuli\rowboat.jpg,Right,Vehicle,1499,168,4,2000,6000
2,1,RUN1-25,309,322,Source hit,1,1,1,Stimuli\plasticgallon.jpg,Left,Household article,1032,169,4,6000,6000
2,1,RUN1-26,382,309,Source miss,3,0,1,Stimuli\oneholepunch.jpg,Right,Stationary,1407,170,4,6000,4000
2,1,RUN1-27,571,382,Source missatribution,2,0,1,Stimuli\giftbow02b.jpg,Right,Decorations & Gift,1640,171,4,4000,4000
2,1,RUN1-28,475,571,Source hit,1,1,1,Stimuli\guitarcase.jpg,Left,Musical instrument,1163,172,4,4000,2000
2,1,RUN1-29,285,475,Source hit,1,1,1,Stimuli\salsa.jpg,Left,Food,928,173,4,2000,6000
2,1,RUN1-30,354,285,Source hit,1,1,1,Stimuli\portapotty.jpg,Left,Building infrastructure,1857,174,4,6000,4000
2,1,RUN1-31,391,354,Source missatribution,2,0,1,Stimuli\springroll.jpg,Right,Food,968,175,4,4000,4000
2,1,RUN1-32,274,391,Source hit,1,1,1,Stimuli\womenwashroomsign.jpg,Left,Building infrastructure,766,176,4,4000,6000
2,1,RUN1-33,477,274,Source hit,1,1,1,Stimuli\snowman.jpg,Left,Outdoor & sport,870,177,4,6000,2000
2,1,RUN1-34,325,477,miss,4,0,0,Stimuli\espressomachine.jpg,Left,Kitchen,1426,178,4,2000,6000
2,1,RUN1-35,387,325,Source hit,1,1,1,Stimuli\poloshirt.jpg,Left,Clothing,947,179,4,6000,2000
2,1,RUN1-36,543,387,Source miss,3,0,1,Stimuli\musicsheet.jpg,Left,Musical instrument,2068,180,4,2000,6000
2,1,RUN1-37,276,543,miss,4,0,0,Stimuli\scotchtape.jpg,Right,Stationary,1125,181,4,6000,6000
2,1,RUN1-38,263,276,Source hit,1,1,1,Stimuli\aceofdiamond.jpg,Left,Game & entertainment,1045,182,4,6000,4000
2,1,RUN1-39,246,263,Source miss,3,0,1,Stimuli\glassescase.jpg,Left,Clothing,1538,183,4,4000,6000
2,1,RUN1-40,348,246,Source hit,1,1,1,Stimuli\button01.jpg,Right,Clothing,719,184,4,6000,2000
2,1,RUN1-41,341,348,Source miss,3,0,1,Stimuli\fireextinguisher01.jpg,Right,Household article,1266,185,4,2000,4000
2,1,RUN1-42,309,341,miss,4,0,0,Stimuli\sravelmug.jpg,Left,Kitchen,803,186,4,4000,6000
2,1,RUN1-43,594,309,Source miss,3,0,1,Stimuli\ball02.jpg,Right,Game & entertainment,1319,187,4,6000,2000
2,1,RUN1-44,478,594,Source hit,1,1,1,Stimuli\flyswatter.jpg,Left,Household article,1111,188,4,2000,2000
2,1,RUN1-45,466,478,Source hit,1,1,1,Stimuli\8ball.jpg,Left,Game & entertainment,1289,189,4,2000,2000
2,1,RUN1-46,408,466,Source hit,1,1,1,Stimuli\pilgrimhat.jpg,Right,Clothing,1858,190,4,2000,4000
2,1,RUN1-47,418,408,Source hit,1,1,1,Stimuli\bassguitar.jpg,Right,Musical instrument,1431,191,4,4000,2000
2,1,RUN1-48,589,418,Source miss,3,0,1,Stimuli\bridge.jpg,Right,Building infrastructure,1190,192,4,2000,4000
2,2,RUN2-2,284,1049,Source hit,1,1,1,Stimuli\electricoutlet.jpg,Right,Electronics,1437,98,3,2000,2000
2,2,RUN2-3,346,284,Source hit,1,1,1,Stimuli\binder03b.jpg,Right,Stationary,885,99,3,2000,6000
2,2,RUN2-4,286,346,Source hit,1,1,1,Stimuli\cornet.jpg,Left,Musical instrument,870,100,3,6000,6000
2,2,RUN2-5,309,286,Source hit,1,1,1,Stimuli\wire.jpg,Left,Electronics,2002,101,3,6000,6000
2,2,RUN2-6,503,309,Source hit,1,1,1,Stimuli\jesusstatue.jpg,Right,Decorations & Gift,1115,102,3,6000,2000
2,2,RUN2-7,369,503,Source hit,1,1,1,Stimuli\petcarrier.jpg,Right,Household article,870,103,3,2000,4000
2,2,RUN2-8,317,369,Source hit,1,1,1,Stimuli\scrubbingbrush05b.jpg,Left,Household article,1622,104,3,4000,2000
2,2,RUN2-9,337,317,Source miss,3,0,1,Stimuli\sshirt.jpg,Left,Clothing,2397,105,3,2000,2000
2,2,RUN2-10,334,337,Source miss,3,0,1,Stimuli\doublebass.jpg,Left,Musical instrument,2307,106,3,2000,2000
2,2,RUN2-11,276,334,Source missatribution,2,0,1,Stimuli\windshieldwasherfluid.jpg,Right,Household article,1251,107,3,2000,6000
2,2,RUN2-12,402,276,Source hit,1,1,1,Stimuli\chessboard.jpg,Left,Game & entertainment,964,108,3,6000,2000
2,2,RUN2-13,344,402,Source missatribution,2,0,1,Stimuli\fence02.jpg,Right,Building infrastructure,1910,109,3,2000,6000
2,2,RUN2-14,529,344,Source hit,1,1,1,Stimuli\barbedwire01.jpg,Right,Building infrastructure,889,110,3,6000,4000
2,2,RUN2-15,336,529,Source hit,1,1,1,Stimuli\shumbtack02a.jpg,Right,Stationary,974,111,3,4000,4000
2,2,RUN2-16,331,336,Source hit,1,1,1,Stimuli\wallet02a.jpg,Left,Clothing,985,112,3,4000,6000
2,2,RUN2-17,380,331,Source miss,3,0,1,Stimuli\schoolbus.jpg,Right,Vehicle,1493,113,3,6000,6000
2,2,RUN2-18,419,380,Source hit,1,1,1,Stimuli\worldmap.jpg,Left,Stationary,1014,114,3,6000,4000
2,2,RUN2-19,0,419,Source miss,3,0,1,Stimuli\crosscountryski.jpg,Left,Outdoor & sport,1969,115,3,4000,2000
2,2,RUN2-20,705,0,Source hit,1,1,1,Stimuli\cigarette.jpg,Right,Game & entertainment,967,116,3,2000,2000
2,2,RUN2-21,275,705,Source hit,1,1,1,Stimuli\saxisign.jpg,Left,Vehicle,1214,117,3,2000,4000
2,2,RUN2-22,265,275,Source hit,1,1,1,Stimuli\cherrypicker.jpg,Left,Vehicle,1251,118,3,4000,2000
2,2,RUN2-23,286,265,Source hit,1,1,1,Stimuli\cola.jpg,Right,Food,807,119,3,2000,4000
2,2,RUN2-24,332,286,Source miss,3,0,1,Stimuli\bicycle.jpg,Right,Outdoor & sport,1592,120,3,4000,2000
2,2,RUN2-25,285,332,miss,4,0,0,Stimuli\windturbine.jpg,Left,Building infrastructure,1060,121,3,2000,6000
2,2,RUN2-26,413,285,Source hit,1,1,1,Stimuli\sricornhat.jpg,Right,Clothing,1112,122,3,6000,4000
2,2,RUN2-27,373,413,Source missatribution,2,0,1,Stimuli\recorder04.jpg,Right,Musical instrument,2041,123,3,4000,4000
2,2,RUN2-28,389,373,miss,4,0,0,Stimuli\sractor.jpg,Right,Vehicle,1974,124,3,4000,6000
2,2,RUN2-29,433,389,Source hit,1,1,1,Stimuli\srafficlight.jpg,Left,Building infrastructure,865,125,3,6000,4000
2,2,RUN2-30,431,433,Source hit,1,1,1,Stimuli\jewelrybox01b.jpg,Left,Decorations & Gift,857,126,3,4000,2000
2,2,RUN2-31,347,431,Source hit,1,1,1,Stimuli\cigar.jpg,Right,Game & entertainment,644,127,3,2000,4000
2,2,RUN2-32,1002,347,Source hit,1,1,1,Stimuli\chessknight03a.jpg,Left,Game & entertainment,759,128,3,4000,4000
2,2,RUN2-33,695,1002,Source hit,1,1,1,Stimuli\coconut.jpg,Right,Food,1420,129,3,4000,6000
2,2,RUN2-34,321,695,Source hit,1,1,1,Stimuli\srophy01.jpg,Left,Decorations & Gift,926,130,3,6000,4000
2,2,RUN2-35,275,321,Source missatribution,2,0,1,Stimuli\expansioncard.jpg,Right,Electronics,1511,131,3,4000,6000
2,2,RUN2-36,255,275,Source hit,1,1,1,Stimuli\bracelet04.jpg,Right,Decorations & Gift,870,132,3,6000,4000
2,2,RUN2-37,343,255,Source hit,1,1,1,Stimuli\pitcher02b.jpg,Left,Kitchen,1062,133,3,4000,6000
2,2,RUN2-38,330,343,miss,4,0,0,Stimuli\cakeplatter.jpg,Left,Kitchen,1236,134,3,6000,6000
2,2,RUN2-39,367,330,Source hit,1,1,1,Stimuli\mug01.jpg,Right,Kitchen,1093,135,3,6000,6000
2,2,RUN2-40,374,367,Source hit,1,1,1,Stimuli\mug05.jpg,Right,Kitchen,1223,136,3,6000,4000
2,2,RUN2-41,443,374,Source hit,1,1,1,Stimuli\shread02.jpg,Left,Household article,693,137,3,4000,6000
2,2,RUN2-42,672,443,Source hit,1,1,1,Stimuli\footballhelmet.jpg,Right,Outdoor & sport,970,138,3,6000,2000
2,2,RUN2-43,306,672,Source hit,1,1,1,Stimuli\strawberry.jpg,Left,Food,773,139,3,2000,6000
2,2,RUN2-44,375,306,Source hit,1,1,1,Stimuli\belt02a.jpg,Right,Clothing,954,140,3,6000,2000
2,2,RUN2-45,447,375,Source hit,1,1,1,Stimuli\exercisebench.jpg,Left,Outdoor & sport,988,141,3,2000,4000
2,2,RUN2-46,408,447,Source hit,1,1,1,Stimuli\electricdrumset.jpg,Right,Musical instrument,1810,142,3,4000,2000
2,2,RUN2-47,348,408,Source miss,3,0,1,Stimuli\fountainpen.jpg,Left,Stationary,1208,143,3,2000,2000
2,2,RUN2-48,323,348,Source hit,1,1,1,Stimuli\battery02b.jpg,Left,Electronics,872,144,3,2000,4000
2,4,RUN4-2,242,595,Source miss,3,0,1,Stimuli\pacifier02d.jpg,Right,Game & entertainment,2404,2,1,2000,2000
2,4,RUN4-3,313,242,Source missatribution,2,0,1,Stimuli\shimble.jpg,Right,Household article,2302,3,1,2000,4000
2,4,RUN4-4,266,313,Source hit,1,1,1,Stimuli\mousetrap.jpg,Left,Household article,1084,4,1,4000,6000
2,4,RUN4-5,305,266,Source miss,3,0,1,Stimuli\desktopcomputer.jpg,Right,Electronics,1486,5,1,6000,2000
2,4,RUN4-6,305,305,Source hit,1,1,1,Stimuli\pottery.jpg,Left,Decorations & Gift,2804,6,1,2000,4000
2,4,RUN4-7,321,305,miss,4,0,0,Stimuli\christmasball.jpg,Left,Decorations & Gift,892,7,1,4000,2000
2,4,RUN4-8,301,321,Source hit,1,1,1,Stimuli\photocopier.jpg,Left,Electronics,1384,8,1,2000,6000
2,4,RUN4-9,291,301,miss,4,0,0,Stimuli\macaroni01.jpg,Right,Food,898,9,1,6000,4000
2,4,RUN4-10,301,291,Source hit,1,1,1,Stimuli\wagonwheel.jpg,Left,Vehicle,1231,10,1,4000,4000
2,4,RUN4-11,360,301,Source hit,1,1,1,Stimuli\frisbee.jpg,Right,Outdoor & sport,1158,11,1,4000,2000
2,4,RUN4-12,314,360,miss,4,0,0,Stimuli\marble.jpg,Left,Game & entertainment,803,12,1,2000,2000
2,4,RUN4-13,303,314,Source hit,1,1,1,Stimuli\grill.jpg,Right,Kitchen,897,13,1,2000,6000
2,4,RUN4-14,447,303,Source hit,1,1,1,Stimuli\gong.jpg,Right,Musical instrument,1271,14,1,6000,4000
2,4,RUN4-15,286,447,Source hit,1,1,1,Stimuli\gutteranddrainpipe.jpg,Left,Building infrastructure,1178,15,1,4000,6000
2,4,RUN4-16,335,286,miss,4,0,0,Stimuli\parkingmeter.jpg,Right,Building infrastructure,2710,16,1,6000,4000
2,4,RUN4-17,301,335,Source hit,1,1,1,Stimuli\bag.jpg,Left,Stationary,2973,17,1,4000,4000
2,4,RUN4-18,426,301,miss,4,0,0,Stimuli\ashtray01.jpg,Left,Household article,1025,18,1,4000,2000
2,4,RUN4-19,283,426,No response,0,0,0,Stimuli\metronome.jpg,Right,Musical instrument,0,19,1,2000,2000
2,4,RUN4-20,379,283,Source hit,1,1,1,Stimuli\spacerover.jpg,Left,Vehicle,1590,20,1,2000,2000
2,4,RUN4-21,298,379,miss,4,0,0,Stimuli\cabasa.jpg,Left,Musical instrument,1188,21,1,2000,6000
2,4,RUN4-22,371,298,miss,4,0,0,Stimuli\keyboard.jpg,Left,Musical instrument,1556,22,1,6000,2000
2,4,RUN4-23,355,371,Source hit,1,1,1,Stimuli\woodenshoe.jpg,Left,Clothing,1042,23,1,2000,6000
2,4,RUN4-24,304,355,Source hit,1,1,1,Stimuli\sumber3.jpg,Right,Game & entertainment,1595,24,1,6000,4000
2,4,RUN4-25,377,304,Source miss,3,0,1,Stimuli\mrpotatohead.jpg,Left,Game & entertainment,884,25,1,4000,4000
2,4,RUN4-26,333,377,Source hit,1,1,1,Stimuli\honeycomb.jpg,Left,Food,771,26,1,4000,6000
2,4,RUN4-27,356,333,Source missatribution,2,0,1,Stimuli\carbattery.jpg,Right,Electronics,1195,27,1,6000,6000
2,4,RUN4-28,650,356,miss,4,0,0,Stimuli\safetyglasses.jpg,Left,Clothing,855,28,1,6000,2000
2,4,RUN4-29,367,650,miss,4,0,0,Stimuli\microphone01.jpg,Left,Electronics,1235,29,1,2000,4000
2,4,RUN4-30,242,367,Source miss,3,0,1,Stimuli\rollerblade.jpg,Left,Outdoor & sport,1809,30,1,4000,4000
2,4,RUN4-31,358,242,Source miss,3,0,1,Stimuli\amphora.jpg,Right,Decorations & Gift,1859,31,1,4000,2000
2,4,RUN4-32,245,358,Source missatribution,2,0,1,Stimuli\wheelchair.jpg,Right,Vehicle,1050,32,1,2000,6000
2,4,RUN4-33,375,245,Source hit,1,1,1,Stimuli\sableknife02.jpg,Left,Kitchen,1066,33,1,6000,6000
2,4,RUN4-34,303,375,miss,4,0,0,Stimuli\staple.jpg,Right,Stationary,2389,34,1,6000,6000
2,4,RUN4-35,334,303,Source hit,1,1,1,Stimuli\raspberry01.jpg,Right,Food,1132,35,1,6000,6000
2,4,RUN4-36,402,334,Source miss,3,0,1,Stimuli\lei.jpg,Right,Decorations & Gift,1306,36,1,6000,4000
2,4,RUN4-37,345,402,Source missatribution,2,0,1,Stimuli\ruler04.jpg,Right,Stationary,1798,37,1,4000,4000
2,4,RUN4-38,406,345,No response,0,0,0,Stimuli\styrofoamcup.jpg,Left,Kitchen,0,38,1,4000,6000
2,4,RUN4-39,331,406,Source hit,1,1,1,Stimuli\shoulderpad.jpg,Right,Outdoor & sport,1587,39,1,6000,2000
2,4,RUN4-40,270,331,Source miss,3,0,1,Stimuli\sponge01.jpg,Right,Household article,1741,40,1,2000,6000
2,4,RUN4-41,545,270,Source miss,3,0,1,Stimuli\scissors01.jpg,Left,Stationary,1188,41,1,6000,2000
2,4,RUN4-42,361,545,Source miss,3,0,1,Stimuli\baseballbat.jpg,Left,Outdoor & sport,1789,42,1,2000,2000
2,4,RUN4-43,264,361,miss,4,0,0,Stimuli\dumptruck.jpg,Right,Vehicle,885,43,1,2000,6000
2,4,RUN4-44,403,264,Source miss,3,0,1,Stimuli\moccasin.jpg,Right,Clothing,2033,44,1,6000,2000
2,4,RUN4-45,534,403,Source hit,1,1,1,Stimuli\jeans01.jpg,Right,Clothing,1911,45,1,2000,4000
2,4,RUN4-46,395,534,Source miss,3,0,1,Stimuli\ruins.jpg,Left,Building infrastructure,1288,46,1,4000,4000
2,4,RUN4-47,367,395,miss,4,0,0,Stimuli\road02.jpg,Right,Building infrastructure,1037,47,1,4000,6000
2,4,RUN4-48,300,367,Source missatribution,2,0,1,Stimuli\fonduefork01.jpg,Right,Kitchen,1484,48,1,6000,4000
3,1,RUN1-2,362,308,Source hit,1,1,1,Stimuli\partyhat.jpg,Right,Decorations & Gift,1043,146,4,4000,2000
3,1,RUN1-3,318,362,Source hit,1,1,1,Stimuli\airhockeytable.jpg,Right,Game & entertainment,1476,147,4,2000,4000
3,1,RUN1-4,300,318,Source hit,1,1,1,Stimuli\key07.jpg,Right,Household article,727,148,4,4000,6000
3,1,RUN1-5,289,300,Source hit,1,1,1,Stimuli\rowboat.jpg,Right,Vehicle,1134,149,4,6000,6000
3,1,RUN1-6,313,289,Source miss,3,0,1,Stimuli\speedball.jpg,Left,Outdoor & sport,1941,150,4,6000,4000
3,1,RUN1-7,267,313,Source hit,1,1,1,Stimuli\audiocablesplitter.jpg,Left,Electronics,1444,151,4,4000,4000
3,1,RUN1-8,470,267,Source hit,1,1,1,Stimuli\postitnote.jpg,Left,Stationary,1105,152,4,4000,2000
3,1,RUN1-9,278,470,Source hit,1,1,1,Stimuli\saxophone.jpg,Right,Musical instrument,1475,153,4,2000,4000
3,1,RUN1-10,339,278,Source hit,1,1,1,Stimuli\ball02.jpg,Right,Game & entertainment,1680,154,4,4000,2000
3,1,RUN1-11,286,339,Source hit,1,1,1,Stimuli\scotchtape.jpg,Right,Stationary,1225,155,4,2000,6000
3,1,RUN1-12,401,286,Source miss,3,0,1,Stimuli\icebucket.jpg,Right,Kitchen,2076,156,4,6000,6000
3,1,RUN1-13,376,401,miss,4,0,0,Stimuli\horsefigurine.jpg,Left,Decorations & Gift,1608,157,4,6000,4000
3,1,RUN1-14,298,376,Source hit,1,1,1,Stimuli\remotecontrol04.jpg,Right,Electronics,1110,158,4,4000,6000
3,1,RUN1-15,286,298,Source hit,1,1,1,Stimuli\sravelmug.jpg,Left,Kitchen,1028,159,4,6000,6000
3,1,RUN1-16,339,286,Source hit,1,1,1,Stimuli\bowlingball.jpg,Right,Outdoor & sport,1857,160,4,6000,2000
3,1,RUN1-17,642,339,Source hit,1,1,1,Stimuli\glassescase.jpg,Left,Clothing,1252,161,4,2000,6000
3,1,RUN1-18,566,642,Source miss,3,0,1,Stimuli\guitarcase.jpg,Left,Musical instrument,2564,162,4,6000,2000
3,1,RUN1-19,348,566,Source miss,3,0,1,Stimuli\flyswatter.jpg,Left,Household article,1377,163,4,2000,2000
3,1,RUN1-20,293,348,Source hit,1,1,1,Stimuli\salsa.jpg,Left,Food,1257,164,4,2000,6000
3,1,RUN1-21,315,293,Source miss,3,0,1,Stimuli\snowman.jpg,Left,Outdoor & sport,2008,165,4,6000,2000
3,1,RUN1-22,275,315,Source hit,1,1,1,Stimuli\giftbow02b.jpg,Right,Decorations & Gift,1003,166,4,2000,4000
3,1,RUN1-23,335,275,Source miss,3,0,1,Stimuli\plasticgallon.jpg,Left,Household article,1326,167,4,4000,6000
3,1,RUN1-24,284,335,Source hit,1,1,1,Stimuli\gearshift.jpg,Right,Vehicle,1101,168,4,6000,6000
3,1,RUN1-25,398,284,Source hit,1,1,1,Stimuli\bassguitar.jpg,Right,Musical instrument,1115,169,4,6000,2000
3,1,RUN1-26,406,398,Source hit,1,1,1,Stimuli\bumpercar.jpg,Left,Vehicle,1061,170,4,2000,2000
3,1,RUN1-27,328,406,Source hit,1,1,1,Stimuli\slidetray.jpg,Right,Electronics,1083,171,4,2000,2000
3,1,RUN1-28,357,328,Source hit,1,1,1,Stimuli\button01.jpg,Right,Clothing,1253,172,4,2000,2000
3,1,RUN1-29,444,357,Source miss,3,0,1,Stimuli\crumpledpaper.jpg,Left,Stationary,1925,173,4,2000,4000
3,1,RUN1-30,641,444,Source miss,3,0,1,Stimuli\mushroom01.jpg,Left,Food,2121,174,4,4000,2000
3,1,RUN1-31,393,641,Source hit,1,1,1,Stimuli\rearviewmirror.jpg,Left,Vehicle,944,175,4,2000,4000
3,1,RUN1-32,411,393,miss,4,0,0,Stimuli\8ball.jpg,Left,Game & entertainment,1680,176,4,4000,2000
3,1,RUN1-33,498,411,Source hit,1,1,1,Stimuli\gift01.jpg,Left,Decorations & Gift,867,177,4,2000,2000
3,1,RUN1-34,323,498,Source hit,1,1,1,Stimuli\bridge.jpg,Right,Building infrastructure,1088,178,4,2000,4000
3,1,RUN1-35,379,323,Source hit,1,1,1,Stimuli\payphone.jpg,Left,Electronics,1516,179,4,4000,6000
3,1,RUN1-36,487,379,miss,4,0,0,Stimuli\racquetballracket.jpg,Right,Outdoor & sport,1972,180,4,6000,2000
3,1,RUN1-37,340,487,Source miss,3,0,1,Stimuli\radiator.jpg,Right,Building infrastructure,2793,181,4,2000,6000
3,1,RUN1-38,283,340,Source hit,1,1,1,Stimuli\espressomachine.jpg,Left,Kitchen,1165,182,4,6000,6000
3,1,RUN1-39,295,283,Source hit,1,1,1,Stimuli\springroll.jpg,Right,Food,1058,183,4,6000,4000
3,1,RUN1-40,346,295,Source hit,1,1,1,Stimuli\oneholepunch.jpg,Right,Stationary,834,184,4,4000,4000
3,1,RUN1-41,554,346,Source hit,1,1,1,Stimuli\poloshirt.jpg,Left,Clothing,908,185,4,4000,2000
3,1,RUN1-42,394,554,Source hit,1,1,1,Stimuli\womenwashroomsign.jpg,Left,Building infrastructure,880,186,4,2000,6000
3,1,RUN1-43,345,394,Source hit,1,1,1,Stimuli\blackolive.jpg,Right,Food,1276,187,4,6000,6000
3,1,RUN1-44,371,345,Source hit,1,1,1,Stimuli\fireextinguisher01.jpg,Right,Household article,2242,188,4,6000,4000
3,1,RUN1-45,298,371,Source hit,1,1,1,Stimuli\pilgrimhat.jpg,Right,Clothing,1176,189,4,4000,4000
3,1,RUN1-46,298,298,Source hit,1,1,1,Stimuli\musicsheet.jpg,Left,Musical instrument,1115,190,4,4000,6000
3,1,RUN1-47,307,298,Source hit,1,1,1,Stimuli\portapotty.jpg,Left,Building infrastructure,800,191,4,6000,4000
3,1,RUN1-48,389,307,Source hit,1,1,1,Stimuli\aceofdiamond.jpg,Left,Game & entertainment,969,192,4,4000,4000
3,2,RUN2-2,406,483,Source hit,1,1,1,Stimuli\wire.jpg,Left,Electronics,1624,50,2,6000,6000
3,2,RUN2-3,392,406,Source hit,1,1,1,Stimuli\saxisign.jpg,Left,Vehicle,876,51,2,6000,4000
3,2,RUN2-4,431,392,Source hit,1,1,1,Stimuli\chessknight03a.jpg,Left,Game & entertainment,1029,52,2,4000,4000
3,2,RUN2-5,388,431,Source hit,1,1,1,Stimuli\expansioncard.jpg,Right,Electronics,1150,53,2,4000,6000
3,2,RUN2-6,501,388,Source hit,1,1,1,Stimuli\cherrypicker.jpg,Left,Vehicle,1097,54,2,6000,2000
3,2,RUN2-7,438,501,Source hit,1,1,1,Stimuli\worldmap.jpg,Left,Stationary,1066,55,2,2000,4000
3,2,RUN2-8,554,438,Source missatribution,2,0,1,Stimuli\pitcher02b.jpg,Left,Kitchen,1739,56,2,4000,6000
3,2,RUN2-9,464,554,Source hit,1,1,1,Stimuli\srafficlight.jpg,Left,Building infrastructure,1746,57,2,6000,4000
3,2,RUN2-10,542,464,miss,4,0,0,Stimuli\belt02a.jpg,Right,Clothing,1705,58,2,4000,2000
3,2,RUN2-11,343,542,Source hit,1,1,1,Stimuli\cola.jpg,Right,Food,996,59,2,2000,4000
3,2,RUN2-12,563,343,Source hit,1,1,1,Stimuli\exercisebench.jpg,Left,Outdoor & sport,1157,60,2,4000,4000
3,2,RUN2-13,783,563,Source miss,3,0,1,Stimuli\sricornhat.jpg,Right,Clothing,2193,61,2,4000,4000
3,2,RUN2-14,537,783,Source miss,3,0,1,Stimuli\scrubbingbrush05b.jpg,Left,Household article,1296,62,2,4000,2000
3,2,RUN2-15,361,537,Source hit,1,1,1,Stimuli\cornet.jpg,Left,Musical instrument,1423,63,2,2000,6000
3,2,RUN2-16,454,361,miss,4,0,0,Stimuli\bicycle.jpg,Right,Outdoor & sport,1178,64,2,6000,2000
3,2,RUN2-17,405,454,Source hit,1,1,1,Stimuli\strawberry.jpg,Left,Food,840,65,2,2000,6000
3,2,RUN2-18,575,405,Source hit,1,1,1,Stimuli\bracelet04.jpg,Right,Decorations & Gift,1624,66,2,6000,4000
3,2,RUN2-19,437,575,Source miss,3,0,1,Stimuli\shumbtack02a.jpg,Right,Stationary,1560,67,2,4000,4000
3,2,RUN2-20,435,437,Source miss,3,0,1,Stimuli\shread02.jpg,Left,Household article,1638,68,2,4000,6000
3,2,RUN2-21,480,435,Source hit,1,1,1,Stimuli\electricdrumset.jpg,Right,Musical instrument,1573,69,2,6000,2000
3,2,RUN2-22,509,480,Source miss,3,0,1,Stimuli\barbedwire01.jpg,Right,Building infrastructure,2194,70,2,2000,4000
3,2,RUN2-23,737,509,Source hit,1,1,1,Stimuli\battery02b.jpg,Left,Electronics,1548,71,2,4000,4000
3,2,RUN2-24,327,737,Source missatribution,2,0,1,Stimuli\schoolbus.jpg,Right,Vehicle,947,72,2,4000,6000
3,2,RUN2-25,493,327,Source hit,1,1,1,Stimuli\doublebass.jpg,Left,Musical instrument,1398,73,2,6000,2000
3,2,RUN2-26,339,493,Source missatribution,2,0,1,Stimuli\recorder04.jpg,Right,Musical instrument,1622,74,2,2000,4000
3,2,RUN2-27,420,339,Source miss,3,0,1,Stimuli\srophy01.jpg,Left,Decorations & Gift,1457,75,2,4000,4000
3,2,RUN2-28,399,420,Source hit,1,1,1,Stimuli\electricoutlet.jpg,Right,Electronics,1269,76,2,4000,2000
3,2,RUN2-29,371,399,Source hit,1,1,1,Stimuli\jesusstatue.jpg,Right,Decorations & Gift,1348,77,2,2000,2000
3,2,RUN2-30,353,371,Source hit,1,1,1,Stimuli\petcarrier.jpg,Right,Household article,1380,78,2,2000,4000
3,2,RUN2-31,372,353,miss,4,0,0,Stimuli\sractor.jpg,Right,Vehicle,1710,79,2,4000,6000
3,2,RUN2-32,454,372,Source hit,1,1,1,Stimuli\cigarette.jpg,Right,Game & entertainment,1457,80,2,6000,2000
3,2,RUN2-33,418,454,Source miss,3,0,1,Stimuli\fence02.jpg,Right,Building infrastructure,1773,81,2,2000,6000
3,2,RUN2-34,566,418,Source hit,1,1,1,Stimuli\mango01.jpg,Left,Food,883,82,2,6000,2000
3,2,RUN2-35,401,566,Source hit,1,1,1,Stimuli\wallet02a.jpg,Left,Clothing,1164,83,2,2000,6000
3,2,RUN2-36,718,401,Source miss,3,0,1,Stimuli\footballhelmet.jpg,Right,Outdoor & sport,1629,84,2,6000,2000
3,2,RUN2-37,415,718,Source hit,1,1,1,Stimuli\windshieldwasherfluid.jpg,Right,Household article,1917,85,2,2000,6000
3,2,RUN2-38,446,415,Source missatribution,2,0,1,Stimuli\cakeplatter.jpg,Left,Kitchen,1402,86,2,6000,6000
3,2,RUN2-39,491,446,Source hit,1,1,1,Stimuli\chessboard.jpg,Left,Game & entertainment,1298,87,2,6000,2000
3,2,RUN2-40,479,491,miss,4,0,0,Stimuli\mug01.jpg,Right,Kitchen,1753,88,2,2000,6000
3,2,RUN2-41,691,479,Source hit,1,1,1,Stimuli\cigar.jpg,Right,Game & entertainment,1029,89,2,6000,4000
3,2,RUN2-42,515,691,Source hit,1,1,1,Stimuli\jewelrybox01b.jpg,Left,Decorations & Gift,1054,90,2,4000,2000
3,2,RUN2-43,461,515,Source hit,1,1,1,Stimuli\windturbine.jpg,Left,Building infrastructure,1097,91,2,2000,6000
3,2,RUN2-44,569,461,Source hit,1,1,1,Stimuli\fountainpen.jpg,Left,Stationary,1399,92,2,6000,2000
3,2,RUN2-45,481,569,Source miss,3,0,1,Stimuli\crosscountryski.jpg,Left,Outdoor & sport,1665,93,2,2000,2000
3,2,RUN2-46,557,481,Source hit,1,1,1,Stimuli\mug05.jpg,Right,Kitchen,944,94,2,2000,4000
3,2,RUN2-47,558,557,miss,4,0,0,Stimuli\sshirt.jpg,Left,Clothing,1859,95,2,4000,2000
3,2,RUN2-48,373,558,Source hit,1,1,1,Stimuli\binder03b.jpg,Right,Stationary,1312,96,2,2000,6000
3,3,RUN3-2,268,1338,Source miss,3,0,1,Stimuli\shermometer02b.jpg,Left,Household article,1345,2,1,6000,2000
3,3,RUN3-3,369,268,miss,4,0,0,Stimuli\flag.jpg,Right,Decorations & Gift,1498,3,1,2000,2000
3,3,RUN3-4,372,369,Source miss,3,0,1,Stimuli\hockeystick.jpg,Right,Outdoor & sport,1430,4,1,2000,2000
3,3,RUN3-5,558,372,Source hit,1,1,1,Stimuli\fluorescentlightbulb.jpg,Left,Electronics,2570,5,1,2000,6000
3,3,RUN3-6,322,558,Source miss,3,0,1,Stimuli\windmill.jpg,Right,Building infrastructure,1310,6,1,6000,4000
3,3,RUN3-7,374,322,Source miss,3,0,1,Stimuli\rawchicken.jpg,Left,Food,1470,7,1,4000,2000
3,3,RUN3-8,330,374,Source miss,3,0,1,Stimuli\ballofstring.jpg,Right,Household article,1648,8,1,2000,6000
3,3,RUN3-9,296,330,Source miss,3,0,1,Stimuli\soccercleat01.jpg,Left,Clothing,1370,9,1,6000,6000
3,3,RUN3-10,455,296,Source miss,3,0,1,Stimuli\rainstick.jpg,Left,Musical instrument,1814,10,1,6000,2000
3,3,RUN3-11,312,455,Source miss,3,0,1,Stimuli\waterfountain02.jpg,Left,Building infrastructure,1409,11,1,2000,6000
3,3,RUN3-12,294,312,Source miss,3,0,1,Stimuli\gamepiece.jpg,Left,Game & entertainment,1472,12,1,6000,4000
3,3,RUN3-13,433,294,Source miss,3,0,1,Stimuli\gamecontroller01.jpg,Left,Game & entertainment,1452,13,1,4000,2000
3,3,RUN3-14,292,433,Source miss,3,0,1,Stimuli\jack.jpg,Left,Electronics,1406,14,1,2000,4000
3,3,RUN3-15,346,292,Source hit,1,1,1,Stimuli\porsche.jpg,Left,Vehicle,1415,15,1,4000,4000
3,3,RUN3-16,462,346,Source miss,3,0,1,Stimuli\skihelmet01.jpg,Left,Outdoor & sport,1241,16,1,4000,2000
3,3,RUN3-17,355,462,Source miss,3,0,1,Stimuli\cooler01.jpg,Left,Outdoor & sport,1561,17,1,2000,4000
3,3,RUN3-18,277,355,Source miss,3,0,1,Stimuli\bagofpowder.jpg,Left,Food,1607,18,1,4000,6000
3,3,RUN3-19,312,277,miss,4,0,0,Stimuli\wallclock.jpg,Left,Household article,1033,19,1,6000,6000
3,3,RUN3-20,482,312,Source miss,3,0,1,Stimuli\shorts01.jpg,Left,Clothing,1446,20,1,6000,2000
3,3,RUN3-21,327,482,miss,4,0,0,Stimuli\safarihat.jpg,Right,Clothing,1230,21,1,2000,4000
3,3,RUN3-22,397,327,Source hit,1,1,1,Stimuli\plate01b.jpg,Right,Kitchen,2165,22,1,4000,6000
3,3,RUN3-23,347,397,Source missatribution,2,0,1,Stimuli\mathcompass.jpg,Right,Stationary,1349,23,1,6000,4000
3,3,RUN3-24,362,347,Source hit,1,1,1,Stimuli\fork03c.jpg,Right,Kitchen,976,24,1,4000,4000
3,3,RUN3-25,453,362,Source hit,1,1,1,Stimuli\birthdaycandle.jpg,Left,Decorations & Gift,1286,25,1,4000,2000
3,3,RUN3-26,377,453,Source miss,3,0,1,Stimuli\usbcable01a.jpg,Right,Electronics,1384,26,1,2000,2000
3,3,RUN3-27,346,377,Source miss,3,0,1,Stimuli\papertray.jpg,Left,Stationary,1608,27,1,2000,2000
3,3,RUN3-28,310,346,Source hit,1,1,1,Stimuli\flask.jpg,Left,Kitchen,1371,28,1,2000,6000
3,3,RUN3-29,566,310,Source miss,3,0,1,Stimuli\pot02a.jpg,Left,Kitchen,1374,29,1,6000,6000
3,3,RUN3-30,591,566,Source miss,3,0,1,Stimuli\horseshoe.jpg,Right,Game & entertainment,1718,30,1,6000,2000
3,3,RUN3-31,483,591,Source miss,3,0,1,Stimuli\windshieldwiper02.jpg,Left,Vehicle,1527,31,1,2000,2000
3,3,RUN3-32,551,483,miss,4,0,0,Stimuli\Saillight.jpg,Right,Vehicle,1479,32,1,2000,6000
3,3,RUN3-33,527,551,Source miss,3,0,1,Stimuli\balalaika.jpg,Right,Musical instrument,1694,33,1,6000,2000
3,3,RUN3-34,510,527,miss,4,0,0,Stimuli\boatmotor.jpg,Right,Outdoor & sport,761,34,1,2000,2000
3,3,RUN3-35,515,510,Source miss,3,0,1,Stimuli\glasses01a.jpg,Right,Clothing,1660,35,1,2000,2000
3,3,RUN3-36,484,515,Source miss,3,0,1,Stimuli\chalk.jpg,Left,Stationary,1265,36,1,2000,4000
3,3,RUN3-37,352,484,Source miss,3,0,1,Stimuli\drum01.jpg,Right,Musical instrument,2177,37,1,4000,4000
3,3,RUN3-38,406,352,Source miss,3,0,1,Stimuli\broom01.jpg,Right,Household article,1828,38,1,4000,4000
3,3,RUN3-39,339,406,Source hit,1,1,1,Stimuli\seabag.jpg,Right,Food,1074,39,1,4000,4000
3,3,RUN3-40,319,339,Source hit,1,1,1,Stimuli\linedpaper.jpg,Right,Stationary,1131,40,1,4000,6000
3,3,RUN3-41,494,319,Source miss,3,0,1,Stimuli\shed02.jpg,Left,Building infrastructure,1001,41,1,6000,4000
3,3,RUN3-42,367,494,Source miss,3,0,1,Stimuli\highstrikergame.jpg,Right,Game & entertainment,1162,42,1,4000,4000
3,3,RUN3-43,456,367,Source miss,3,0,1,Stimuli\steeringwheel.jpg,Right,Vehicle,1405,43,1,4000,6000
3,3,RUN3-44,492,456,miss,4,0,0,Stimuli\lectern01.jpg,Right,Electronics,1307,44,1,6000,6000
3,3,RUN3-45,404,492,Source miss,3,0,1,Stimuli\menwashroomsign.jpg,Right,Building infrastructure,1333,45,1,6000,6000
3,3,RUN3-46,437,404,Source hit,1,1,1,Stimuli\giftbow04.jpg,Right,Decorations & Gift,1143,46,1,6000,4000
3,3,RUN3-47,438,437,Source hit,1,1,1,Stimuli\mirror01.jpg,Left,Decorations & Gift,934,47,1,4000,4000
3,3,RUN3-48,381,438,miss,4,0,0,Stimuli\sausage.jpg,Right,Food,1403,48,1,4000,6000
3,4,RUN4-2,322,455,Source hit,1,1,1,Stimuli\waterbottle01b.jpg,Left,Food,1199,98,3,6000,2000
3,4,RUN4-3,258,322,Source hit,1,1,1,Stimuli\woodenshoe.jpg,Left,Clothing,996,99,3,2000,6000
3,4,RUN4-4,299,258,Source missatribution,2,0,1,Stimuli\honeycomb.jpg,Left,Food,1118,100,3,6000,6000
3,4,RUN4-5,302,299,Source hit,1,1,1,Stimuli\wheelchair.jpg,Right,Vehicle,1137,101,3,6000,6000
3,4,RUN4-6,306,302,Source miss,3,0,1,Stimuli\amphora.jpg,Right,Decorations & Gift,1856,102,3,6000,2000
3,4,RUN4-7,312,306,Source hit,1,1,1,Stimuli\photocopier.jpg,Left,Electronics,917,103,3,2000,6000
3,4,RUN4-8,294,312,Source hit,1,1,1,Stimuli\gong.jpg,Right,Musical instrument,1393,104,3,6000,4000
3,4,RUN4-9,306,294,miss,4,0,0,Stimuli\road02.jpg,Right,Building infrastructure,942,105,3,4000,6000
3,4,RUN4-10,281,306,Source hit,1,1,1,Stimuli\staple.jpg,Right,Stationary,996,106,3,6000,6000
3,4,RUN4-11,458,281,Source hit,1,1,1,Stimuli\keyboard.jpg,Left,Musical instrument,1151,107,3,6000,2000
3,4,RUN4-12,341,458,Source hit,1,1,1,Stimuli\bag.jpg,Left,Stationary,1446,108,3,2000,4000
3,4,RUN4-13,316,341,Source hit,1,1,1,Stimuli\ruins.jpg,Left,Building infrastructure,1132,109,3,4000,4000
3,4,RUN4-14,286,316,Source miss,3,0,1,Stimuli\dumptruck.jpg,Right,Vehicle,2393,110,3,4000,6000
3,4,RUN4-15,366,286,Source hit,1,1,1,Stimuli\styrofoamcup.jpg,Left,Kitchen,1303,111,3,6000,6000
3,4,RUN4-16,386,366,Source miss,3,0,1,Stimuli\safetyglasses.jpg,Left,Clothing,1245,112,3,6000,2000
3,4,RUN4-17,507,386,Source hit,1,1,1,Stimuli\pacifier02d.jpg,Right,Game & entertainment,1210,113,3,2000,2000
3,4,RUN4-18,250,507,Source hit,1,1,1,Stimuli\sumber3.jpg,Right,Game & entertainment,1020,114,3,2000,4000
3,4,RUN4-19,357,250,Source hit,1,1,1,Stimuli\marble.jpg,Left,Game & entertainment,1185,115,3,4000,2000
3,4,RUN4-20,279,357,Source hit,1,1,1,Stimuli\gutteranddrainpipe.jpg,Left,Building infrastructure,1297,116,3,2000,6000
3,4,RUN4-21,289,279,Source hit,1,1,1,Stimuli\lei.jpg,Right,Decorations & Gift,1370,117,3,6000,4000
3,4,RUN4-22,319,289,Source miss,3,0,1,Stimuli\moccasin.jpg,Right,Clothing,1871,118,3,4000,2000
3,4,RUN4-23,231,319,Source miss,3,0,1,Stimuli\rollerblade.jpg,Left,Outdoor & sport,1684,119,3,2000,4000
3,4,RUN4-24,393,231,miss,4,0,0,Stimuli\metronome.jpg,Right,Musical instrument,2439,120,3,4000,2000
3,4,RUN4-25,400,393,Source hit,1,1,1,Stimuli\christmasball.jpg,Left,Decorations & Gift,1074,121,3,2000,2000
3,4,RUN4-26,288,400,Source hit,1,1,1,Stimuli\carbattery.jpg,Right,Electronics,1145,122,3,2000,6000
3,4,RUN4-27,495,288,Source hit,1,1,1,Stimuli\mrpotatohead.jpg,Left,Game & entertainment,1251,123,3,6000,4000
3,4,RUN4-28,357,495,Source hit,1,1,1,Stimuli\jeans01.jpg,Right,Clothing,1786,124,3,4000,4000
3,4,RUN4-29,307,357,Source hit,1,1,1,Stimuli\parkingmeter.jpg,Right,Building infrastructure,1374,125,3,4000,4000
3,4,RUN4-30,305,307,Source miss,3,0,1,Stimuli\fonduefork01.jpg,Right,Kitchen,1399,126,3,4000,4000
3,4,RUN4-31,463,305,Source hit,1,1,1,Stimuli\microphone01.jpg,Left,Electronics,810,127,3,4000,4000
3,4,RUN4-32,497,463,Source miss,3,0,1,Stimuli\grill.jpg,Right,Kitchen,1692,128,3,4000,6000
3,4,RUN4-33,318,497,Source hit,1,1,1,Stimuli\mousetrap.jpg,Left,Household article,1202,129,3,6000,6000
3,4,RUN4-34,345,318,Source miss,3,0,1,Stimuli\shimble.jpg,Right,Household article,1338,130,3,6000,4000
3,4,RUN4-35,530,345,Source hit,1,1,1,Stimuli\scissors01.jpg,Left,Stationary,841,131,3,4000,2000
3,4,RUN4-36,335,530,Source hit,1,1,1,Stimuli\desktopcomputer.jpg,Right,Electronics,981,132,3,2000,2000
3,4,RUN4-37,300,335,Source miss,3,0,1,Stimuli\sponge01.jpg,Right,Household article,1506,133,3,2000,6000
3,4,RUN4-38,389,300,Source missatribution,2,0,1,Stimuli\spacerover.jpg,Left,Vehicle,2684,134,3,6000,2000
3,4,RUN4-39,325,389,Source hit,1,1,1,Stimuli\raspberry01.jpg,Right,Food,785,135,3,2000,6000
3,4,RUN4-40,393,325,Source hit,1,1,1,Stimuli\sableknife02.jpg,Left,Kitchen,743,136,3,6000,6000
3,4,RUN4-41,436,393,Source hit,1,1,1,Stimuli\baseballbat.jpg,Left,Outdoor & sport,1320,137,3,6000,2000
3,4,RUN4-42,672,436,Source miss,3,0,1,Stimuli\ashtray01.jpg,Left,Household article,1802,138,3,2000,2000
3,4,RUN4-43,644,672,Source hit,1,1,1,Stimuli\frisbee.jpg,Right,Outdoor & sport,1218,139,3,2000,2000
3,4,RUN4-44,366,644,Source hit,1,1,1,Stimuli\macaroni01.jpg,Right,Food,1175,140,3,2000,4000
3,4,RUN4-45,322,366,Source missatribution,2,0,1,Stimuli\ruler04.jpg,Right,Stationary,1014,141,3,4000,4000
3,4,RUN4-46,364,322,Source hit,1,1,1,Stimuli\pottery.jpg,Left,Decorations & Gift,1239,142,3,4000,4000
3,4,RUN4-47,395,364,Source miss,3,0,1,Stimuli\wagonwheel.jpg,Left,Vehicle,1791,143,3,4000,4000
3,4,RUN4-48,348,395,Source hit,1,1,1,Stimuli\shoulderpad.jpg,Right,Outdoor & sport,1157,144,3,4000,2000
4,1,RUN1-2,0,293,Source miss,3,0,1,Stimuli\gift01.jpg,Left,Decorations & Gift,2295,50,2,2000,2000
4,1,RUN1-3,283,0,miss,4,0,0,Stimuli\key07.jpg,Right,Household article,2339,51,2,2000,6000
4,1,RUN1-4,431,283,miss,4,0,0,Stimuli\bumpercar.jpg,Left,Vehicle,1955,52,2,6000,2000
4,1,RUN1-5,289,431,miss,4,0,0,Stimuli\rearviewmirror.jpg,Left,Vehicle,1708,53,2,2000,4000
4,1,RUN1-6,262,289,Source hit,1,1,1,Stimuli\espressomachine.jpg,Left,Kitchen,1122,54,2,4000,6000
4,1,RUN1-7,278,262,Source hit,1,1,1,Stimuli\giftbow02b.jpg,Right,Decorations & Gift,1358,55,2,6000,4000
4,1,RUN1-8,278,278,Source hit,1,1,1,Stimuli\cookiecutter.jpg,Right,Kitchen,811,56,2,4000,4000
4,1,RUN1-9,269,278,Source hit,1,1,1,Stimuli\blackolive.jpg,Right,Food,782,57,2,4000,6000
4,1,RUN1-10,311,269,Source hit,1,1,1,Stimuli\bridge.jpg,Right,Building infrastructure,1048,58,2,6000,4000
4,1,RUN1-11,546,311,Source hit,1,1,1,Stimuli\bowlingball.jpg,Right,Outdoor & sport,967,59,2,4000,2000
4,1,RUN1-12,267,546,Source hit,1,1,1,Stimuli\aceofdiamond.jpg,Left,Game & entertainment,939,60,2,2000,4000
4,1,RUN1-13,414,267,Source hit,1,1,1,Stimuli\guitarcase.jpg,Left,Musical instrument,945,61,2,4000,2000
4,1,RUN1-14,358,414,Source hit,1,1,1,Stimuli\button01.jpg,Right,Clothing,814,62,2,2000,2000
4,1,RUN1-15,277,358,Source hit,1,1,1,Stimuli\womenwashroomsign.jpg,Left,Building infrastructure,952,63,2,2000,6000
4,1,RUN1-16,327,277,Source hit,1,1,1,Stimuli\speedball.jpg,Left,Outdoor & sport,961,64,2,6000,4000
4,1,RUN1-17,331,327,Source hit,1,1,1,Stimuli\radiator.jpg,Right,Building infrastructure,774,65,2,4000,6000
4,1,RUN1-18,301,331,Source hit,1,1,1,Stimuli\rowboat.jpg,Right,Vehicle,1179,66,2,6000,6000
4,1,RUN1-19,391,301,Source hit,1,1,1,Stimuli\partyhat.jpg,Right,Decorations & Gift,875,67,2,6000,2000
4,1,RUN1-20,284,391,Source hit,1,1,1,Stimuli\payphone.jpg,Left,Electronics,1411,68,2,2000,6000
4,1,RUN1-21,277,284,Source hit,1,1,1,Stimuli\portapotty.jpg,Left,Building infrastructure,924,69,2,6000,4000
4,1,RUN1-22,287,277,Source hit,1,1,1,Stimuli\oneholepunch.jpg,Right,Stationary,863,70,2,4000,4000
4,1,RUN1-23,321,287,Source hit,1,1,1,Stimuli\plasticgallon.jpg,Left,Household article,1225,71,2,4000,6000
4,1,RUN1-24,306,321,Source hit,1,1,1,Stimuli\sravelmug.jpg,Left,Kitchen,912,72,2,6000,6000
4,1,RUN1-25,282,306,Source hit,1,1,1,Stimuli\saxophone.jpg,Right,Musical instrument,761,73,2,6000,4000
4,1,RUN1-26,329,282,Source hit,1,1,1,Stimuli\scotchtape.jpg,Right,Stationary,772,74,2,4000,6000
4,1,RUN1-27,293,329,Source hit,1,1,1,Stimuli\remotecontrol04.jpg,Right,Electronics,1444,75,2,6000,6000
4,1,RUN1-28,301,293,Source hit,1,1,1,Stimuli\springroll.jpg,Right,Food,779,76,2,6000,4000
4,1,RUN1-29,306,301,Source miss,3,0,1,Stimuli\flyswatter.jpg,Left,Household article,2005,77,2,4000,2000
4,1,RUN1-30,270,306,Source hit,1,1,1,Stimuli\fireextinguisher01.jpg,Right,Household article,916,78,2,2000,4000
4,1,RUN1-31,305,270,Source hit,1,1,1,Stimuli\racquetballracket.jpg,Right,Outdoor & sport,887,79,2,4000,2000
4,1,RUN1-32,272,305,Source hit,1,1,1,Stimuli\snowman.jpg,Left,Outdoor & sport,943,80,2,2000,2000
4,1,RUN1-33,274,272,Source hit,1,1,1,Stimuli\salsa.jpg,Left,Food,1363,81,2,2000,6000
4,1,RUN1-34,402,274,Source hit,1,1,1,Stimuli\musicsheet.jpg,Left,Musical instrument,925,82,2,6000,6000
4,1,RUN1-35,306,402,Source hit,1,1,1,Stimuli\gearshift.jpg,Right,Vehicle,978,83,2,6000,6000
4,1,RUN1-36,523,306,Source hit,1,1,1,Stimuli\8ball.jpg,Left,Game & entertainment,991,84,2,6000,2000
4,1,RUN1-37,269,523,Source hit,1,1,1,Stimuli\icebucket.jpg,Right,Kitchen,952,85,2,2000,6000
4,1,RUN1-38,316,269,Source hit,1,1,1,Stimuli\pilgrimhat.jpg,Right,Clothing,796,86,2,6000,4000
4,1,RUN1-39,346,316,Source hit,1,1,1,Stimuli\poloshirt.jpg,Left,Clothing,822,87,2,4000,2000
4,1,RUN1-40,344,346,Source hit,1,1,1,Stimuli\airhockeytable.jpg,Right,Game & entertainment,902,88,2,2000,4000
4,1,RUN1-41,277,344,Source hit,1,1,1,Stimuli\glassescase.jpg,Left,Clothing,960,89,2,4000,6000
4,1,RUN1-42,415,277,Source hit,1,1,1,Stimuli\horsefigurine.jpg,Left,Decorations & Gift,882,90,2,6000,4000
4,1,RUN1-43,392,415,Source hit,1,1,1,Stimuli\postitnote.jpg,Left,Stationary,1102,91,2,4000,2000
4,1,RUN1-44,315,392,Source miss,3,0,1,Stimuli\crumpledpaper.jpg,Left,Stationary,1923,92,2,2000,4000
4,1,RUN1-45,324,315,Source hit,1,1,1,Stimuli\mushroom01.jpg,Left,Food,999,93,2,4000,2000
4,1,RUN1-46,304,324,Source hit,1,1,1,Stimuli\bassguitar.jpg,Right,Musical instrument,925,94,2,2000,2000
4,1,RUN1-47,461,304,Source hit,1,1,1,Stimuli\slidetray.jpg,Right,Electronics,951,95,2,2000,2000
4,1,RUN1-48,277,461,Source hit,1,1,1,Stimuli\audiocablesplitter.jpg,Left,Electronics,994,96,2,2000,4000
4,4,RUN4-2,324,333,Source missatribution,2,0,1,Stimuli\amphora.jpg,Right,Decorations & Gift,1784,2,1,4000,2000
4,4,RUN4-3,265,324,Source miss,3,0,1,Stimuli\shoulderpad.jpg,Right,Outdoor & sport,2133,3,1,2000,2000
4,4,RUN4-4,302,265,Source miss,3,0,1,Stimuli\ashtray01.jpg,Left,Household article,2301,4,1,2000,2000
4,4,RUN4-5,301,302,Source hit,1,1,1,Stimuli\wheelchair.jpg,Right,Vehicle,1583,5,1,2000,6000
4,4,RUN4-6,397,301,miss,4,0,0,Stimuli\scissors01.jpg,Left,Stationary,1414,6,1,6000,2000
4,4,RUN4-7,281,397,Source hit,1,1,1,Stimuli\gong.jpg,Right,Musical instrument,995,7,1,2000,4000
4,4,RUN4-8,280,281,Source hit,1,1,1,Stimuli\spacerover.jpg,Left,Vehicle,1329,8,1,4000,2000
4,4,RUN4-9,255,280,Source hit,1,1,1,Stimuli\woodenshoe.jpg,Left,Clothing,1036,9,1,2000,6000
4,4,RUN4-10,276,255,Source hit,1,1,1,Stimuli\raspberry01.jpg,Right,Food,776,10,1,6000,6000
4,4,RUN4-11,310,276,Source hit,1,1,1,Stimuli\sponge01.jpg,Right,Household article,1591,11,1,6000,6000
4,4,RUN4-12,537,310,Source miss,3,0,1,Stimuli\metronome.jpg,Right,Musical instrument,2256,12,1,6000,2000
4,4,RUN4-13,316,537,Source hit,1,1,1,Stimuli\baseballbat.jpg,Left,Outdoor & sport,875,13,1,2000,2000
4,4,RUN4-14,275,316,Source hit,1,1,1,Stimuli\ruins.jpg,Left,Building infrastructure,1063,14,1,2000,4000
4,4,RUN4-15,301,275,Source hit,1,1,1,Stimuli\fonduefork01.jpg,Right,Kitchen,888,15,1,4000,4000
4,4,RUN4-16,348,301,Source hit,1,1,1,Stimuli\moccasin.jpg,Right,Clothing,767,16,1,4000,2000
4,4,RUN4-17,283,348,Source hit,1,1,1,Stimuli\macaroni01.jpg,Right,Food,834,17,1,2000,4000
4,4,RUN4-18,243,283,Source hit,1,1,1,Stimuli\ruler04.jpg,Right,Stationary,921,18,1,4000,4000
4,4,RUN4-19,244,243,Source hit,1,1,1,Stimuli\styrofoamcup.jpg,Left,Kitchen,1859,19,1,4000,6000
4,4,RUN4-20,300,244,Source miss,3,0,1,Stimuli\rollerblade.jpg,Left,Outdoor & sport,2785,20,1,6000,4000
4,4,RUN4-21,447,300,Source miss,3,0,1,Stimuli\pottery.jpg,Left,Decorations & Gift,2908,21,1,4000,4000
4,4,RUN4-22,255,447,Source missatribution,2,0,1,Stimuli\mrpotatohead.jpg,Left,Game & entertainment,1599,22,1,4000,4000
4,4,RUN4-23,239,255,Source hit,1,1,1,Stimuli\staple.jpg,Right,Stationary,843,23,1,4000,6000
4,4,RUN4-24,0,239,Source missatribution,2,0,1,Stimuli\keyboard.jpg,Left,Musical instrument,973,24,1,6000,2000
4,4,RUN4-25,284,0,Source miss,3,0,1,Stimuli\frisbee.jpg,Right,Outdoor & sport,1829,25,1,2000,2000
4,4,RUN4-26,394,284,Source hit,1,1,1,Stimuli\safetyglasses.jpg,Left,Clothing,2353,26,1,2000,2000
4,4,RUN4-27,256,394,Source hit,1,1,1,Stimuli\gutteranddrainpipe.jpg,Left,Building infrastructure,1259,27,1,2000,6000
4,4,RUN4-28,258,256,Source hit,1,1,1,Stimuli\dumptruck.jpg,Right,Vehicle,1384,28,1,6000,6000
4,4,RUN4-29,299,258,Source hit,1,1,1,Stimuli\parkingmeter.jpg,Right,Building infrastructure,988,29,1,6000,4000
4,4,RUN4-30,350,299,Source miss,3,0,1,Stimuli\wagonwheel.jpg,Left,Vehicle,1744,30,1,4000,4000
4,4,RUN4-31,349,350,Source hit,1,1,1,Stimuli\cabasa.jpg,Left,Musical instrument,901,31,1,4000,6000
4,4,RUN4-32,326,349,Source hit,1,1,1,Stimuli\waterbottle01b.jpg,Left,Food,1142,32,1,6000,2000
4,4,RUN4-33,287,326,Source hit,1,1,1,Stimuli\honeycomb.jpg,Left,Food,1959,33,1,2000,6000
4,4,RUN4-34,305,287,Source hit,1,1,1,Stimuli\photocopier.jpg,Left,Electronics,1016,34,1,6000,6000
4,4,RUN4-35,305,305,Source hit,1,1,1,Stimuli\road02.jpg,Right,Building infrastructure,980,35,1,6000,6000
4,4,RUN4-36,409,305,Source hit,1,1,1,Stimuli\pacifier02d.jpg,Right,Game & entertainment,896,36,1,6000,2000
4,4,RUN4-37,289,409,Source hit,1,1,1,Stimuli\bag.jpg,Left,Stationary,989,37,1,2000,4000
4,4,RUN4-38,267,289,Source hit,1,1,1,Stimuli\desktopcomputer.jpg,Right,Electronics,1505,38,1,4000,2000
4,4,RUN4-39,302,267,Source miss,3,0,1,Stimuli\sableknife02.jpg,Left,Kitchen,1855,39,1,2000,6000
4,4,RUN4-40,286,302,Source hit,1,1,1,Stimuli\grill.jpg,Right,Kitchen,952,40,1,6000,6000
4,4,RUN4-41,780,286,Source hit,1,1,1,Stimuli\christmasball.jpg,Left,Decorations & Gift,1028,41,1,6000,2000
4,4,RUN4-42,322,780,Source hit,1,1,1,Stimuli\sumber3.jpg,Right,Game & entertainment,1239,42,1,2000,4000
4,4,RUN4-43,254,322,Source hit,1,1,1,Stimuli\mousetrap.jpg,Left,Household article,1209,43,1,4000,6000
4,4,RUN4-44,355,254,Source hit,1,1,1,Stimuli\marble.jpg,Left,Game & entertainment,1140,44,1,6000,2000
4,4,RUN4-45,294,355,Source hit,1,1,1,Stimuli\shimble.jpg,Right,Household article,1350,45,1,2000,4000
4,4,RUN4-46,286,294,miss,4,0,0,Stimuli\carbattery.jpg,Right,Electronics,1628,46,1,4000,6000
4,4,RUN4-47,360,286,Source hit,1,1,1,Stimuli\lei.jpg,Right,Decorations & Gift,1438,47,1,6000,4000
4,4,RUN4-48,292,360,Source hit,1,1,1,Stimuli\jeans01.jpg,Right,Clothing,875,48,1,4000,4000
5,1,RUN1-2,401,933,Source hit,1,1,1,Stimuli\flyswatter.jpg,Left,Household article,2169,50,2,4000,2000
5,1,RUN1-3,399,401,Source hit,1,1,1,Stimuli\oneholepunch.jpg,Right,Stationary,1049,51,2,2000,4000
5,1,RUN1-4,385,399,Source hit,1,1,1,Stimuli\ball02.jpg,Right,Game & entertainment,1050,52,2,4000,2000
5,1,RUN1-5,317,385,No response,0,0,0,Stimuli\partyhat.jpg,Right,Decorations & Gift,0,53,2,2000,2000
5,1,RUN1-6,250,317,Source hit,1,1,1,Stimuli\springroll.jpg,Right,Food,830,54,2,2000,4000
5,1,RUN1-7,424,250,Source hit,1,1,1,Stimuli\remotecontrol04.jpg,Right,Electronics,1243,55,2,4000,6000
5,1,RUN1-8,517,424,miss,4,0,0,Stimuli\button01.jpg,Right,Clothing,828,56,2,6000,2000
5,1,RUN1-9,392,517,Source hit,1,1,1,Stimuli\poloshirt.jpg,Left,Clothing,800,57,2,2000,2000
5,1,RUN1-10,278,392,Source hit,1,1,1,Stimuli\speedball.jpg,Left,Outdoor & sport,997,58,2,2000,4000
5,1,RUN1-11,507,278,Source hit,1,1,1,Stimuli\rowboat.jpg,Right,Vehicle,912,59,2,4000,6000
5,1,RUN1-12,261,507,miss,4,0,0,Stimuli\glassescase.jpg,Left,Clothing,964,60,2,6000,6000
5,1,RUN1-13,226,261,Source hit,1,1,1,Stimuli\aceofdiamond.jpg,Left,Game & entertainment,928,61,2,6000,4000
5,1,RUN1-14,450,226,Source hit,1,1,1,Stimuli\bassguitar.jpg,Right,Musical instrument,1780,62,2,4000,2000
5,1,RUN1-15,381,450,Source hit,1,1,1,Stimuli\mushroom01.jpg,Left,Food,1184,63,2,2000,2000
5,1,RUN1-16,344,381,Source hit,1,1,1,Stimuli\portapotty.jpg,Left,Building infrastructure,1335,64,2,2000,4000
5,1,RUN1-17,281,344,Source hit,1,1,1,Stimuli\musicsheet.jpg,Left,Musical instrument,1317,65,2,4000,6000
5,1,RUN1-18,326,281,Source hit,1,1,1,Stimuli\bowlingball.jpg,Right,Outdoor & sport,874,66,2,6000,2000
5,1,RUN1-19,237,326,Source hit,1,1,1,Stimuli\plasticgallon.jpg,Left,Household article,859,67,2,2000,6000
5,1,RUN1-20,451,237,Source hit,1,1,1,Stimuli\bumpercar.jpg,Left,Vehicle,1035,68,2,6000,2000
5,1,RUN1-21,606,451,Source miss,3,0,1,Stimuli\snowman.jpg,Left,Outdoor & sport,1248,69,2,2000,2000
5,1,RUN1-22,229,606,Source hit,1,1,1,Stimuli\bridge.jpg,Right,Building infrastructure,907,70,2,2000,4000
5,1,RUN1-23,496,229,Source miss,3,0,1,Stimuli\8ball.jpg,Left,Game & entertainment,1189,71,2,4000,2000
5,1,RUN1-24,265,496,Source hit,1,1,1,Stimuli\scotchtape.jpg,Right,Stationary,1040,72,2,2000,6000
5,1,RUN1-25,206,265,Source hit,1,1,1,Stimuli\sravelmug.jpg,Left,Kitchen,1065,73,2,6000,6000
5,1,RUN1-26,496,206,No response,0,0,0,Stimuli\guitarcase.jpg,Left,Musical instrument,0,74,2,6000,2000
5,1,RUN1-27,263,496,Source hit,1,1,1,Stimuli\cookiecutter.jpg,Right,Kitchen,1059,75,2,2000,4000
5,1,RUN1-28,360,263,Source miss,3,0,1,Stimuli\saxophone.jpg,Right,Musical instrument,1393,76,2,4000,4000
5,1,RUN1-29,376,360,Source miss,3,0,1,Stimuli\giftbow02b.jpg,Right,Decorations & Gift,1255,77,2,4000,4000
5,1,RUN1-30,266,376,miss,4,0,0,Stimuli\airhockeytable.jpg,Right,Game & entertainment,1923,78,2,4000,4000
5,1,RUN1-31,523,266,Source hit,1,1,1,Stimuli\salsa.jpg,Left,Food,920,79,2,4000,6000
5,1,RUN1-32,237,523,Source hit,1,1,1,Stimuli\radiator.jpg,Right,Building infrastructure,972,80,2,6000,6000
5,1,RUN1-33,454,237,Source miss,3,0,1,Stimuli\fireextinguisher01.jpg,Right,Household article,1398,81,2,6000,4000
5,1,RUN1-34,461,454,Source hit,1,1,1,Stimuli\racquetballracket.jpg,Right,Outdoor & sport,1167,82,2,4000,2000
5,1,RUN1-35,284,461,Source hit,1,1,1,Stimuli\womenwashroomsign.jpg,Left,Building infrastructure,744,83,2,2000,6000
5,1,RUN1-36,283,284,Source hit,1,1,1,Stimuli\icebucket.jpg,Right,Kitchen,973,84,2,6000,6000
5,1,RUN1-37,378,283,Source hit,1,1,1,Stimuli\blackolive.jpg,Right,Food,1254,85,2,6000,6000
5,1,RUN1-38,256,378,Source hit,1,1,1,Stimuli\espressomachine.jpg,Left,Kitchen,850,86,2,6000,6000
5,1,RUN1-39,631,256,Source hit,1,1,1,Stimuli\gift01.jpg,Left,Decorations & Gift,689,87,2,6000,2000
5,1,RUN1-40,443,631,Source hit,1,1,1,Stimuli\rearviewmirror.jpg,Left,Vehicle,1610,88,2,2000,4000
5,1,RUN1-41,932,443,Source hit,1,1,1,Stimuli\audiocablesplitter.jpg,Left,Electronics,1203,89,2,4000,4000
5,1,RUN1-42,511,932,Source hit,1,1,1,Stimuli\payphone.jpg,Left,Electronics,1484,90,2,4000,6000
5,1,RUN1-43,391,511,Source miss,3,0,1,Stimuli\slidetray.jpg,Right,Electronics,1520,91,2,6000,2000
5,1,RUN1-44,367,391,Source hit,1,1,1,Stimuli\gearshift.jpg,Right,Vehicle,904,92,2,2000,6000
5,1,RUN1-45,646,367,Source hit,1,1,1,Stimuli\postitnote.jpg,Left,Stationary,1431,93,2,6000,2000
5,1,RUN1-46,469,646,Source hit,1,1,1,Stimuli\crumpledpaper.jpg,Left,Stationary,946,94,2,2000,4000
5,1,RUN1-47,253,469,Source hit,1,1,1,Stimuli\key07.jpg,Right,Household article,749,95,2,4000,6000
5,1,RUN1-48,230,253,miss,4,0,0,Stimuli\horsefigurine.jpg,Left,Decorations & Gift,1052,96,2,6000,4000
5,2,RUN2-2,275,1026,Source hit,1,1,1,Stimuli\saxisign.jpg,Left,Vehicle,749,146,4,4000,4000
5,2,RUN2-3,224,275,Source hit,1,1,1,Stimuli\srophy01.jpg,Left,Decorations & Gift,827,147,4,4000,4000
5,2,RUN2-4,238,224,Source miss,3,0,1,Stimuli\sractor.jpg,Right,Vehicle,1185,148,4,4000,6000
5,2,RUN2-5,313,238,Source hit,1,1,1,Stimuli\expansioncard.jpg,Right,Electronics,1378,149,4,6000,6000
5,2,RUN2-6,290,313,Source hit,1,1,1,Stimuli\wallet02a.jpg,Left,Clothing,795,150,4,6000,6000
5,2,RUN2-7,263,290,Source miss,3,0,1,Stimuli\srafficlight.jpg,Left,Building infrastructure,1884,151,4,6000,4000
5,2,RUN2-8,525,263,Source hit,1,1,1,Stimuli\jesusstatue.jpg,Right,Decorations & Gift,1060,152,4,4000,2000
5,2,RUN2-9,257,525,Source hit,1,1,1,Stimuli\barbedwire01.jpg,Right,Building infrastructure,777,153,4,2000,4000
5,2,RUN2-10,547,257,Source miss,3,0,1,Stimuli\chessknight03a.jpg,Left,Game & entertainment,1451,154,4,4000,4000
5,2,RUN2-11,346,547,Source hit,1,1,1,Stimuli\doublebass.jpg,Left,Musical instrument,973,155,4,4000,2000
5,2,RUN2-12,279,346,Source hit,1,1,1,Stimuli\bicycle.jpg,Right,Outdoor & sport,1877,156,4,2000,2000
5,2,RUN2-13,246,279,Source hit,1,1,1,Stimuli\electricdrumset.jpg,Right,Musical instrument,870,157,4,2000,2000
5,2,RUN2-14,236,246,Source hit,1,1,1,Stimuli\cakeplatter.jpg,Left,Kitchen,1251,158,4,2000,6000
5,2,RUN2-15,237,236,Source hit,1,1,1,Stimuli\wire.jpg,Left,Electronics,839,159,4,6000,6000
5,2,RUN2-16,287,237,Source hit,1,1,1,Stimuli\exercisebench.jpg,Left,Outdoor & sport,717,160,4,6000,4000
5,2,RUN2-17,285,287,Source hit,1,1,1,Stimuli\worldmap.jpg,Left,Stationary,786,161,4,4000,4000
5,2,RUN2-18,240,285,Source hit,1,1,1,Stimuli\shumbtack02a.jpg,Right,Stationary,1003,162,4,4000,4000
5,2,RUN2-19,914,240,Source miss,3,0,1,Stimuli\sshirt.jpg,Left,Clothing,1917,163,4,4000,2000
5,2,RUN2-20,220,914,Source hit,1,1,1,Stimuli\cornet.jpg,Left,Musical instrument,1098,164,4,2000,6000
5,2,RUN2-21,255,220,Source hit,1,1,1,Stimuli\windshieldwasherfluid.jpg,Right,Household article,759,165,4,6000,6000
5,2,RUN2-22,245,255,Source miss,3,0,1,Stimuli\windturbine.jpg,Left,Building infrastructure,1210,166,4,6000,6000
5,2,RUN2-23,402,245,miss,4,0,0,Stimuli\battery02b.jpg,Left,Electronics,1144,167,4,6000,4000
5,2,RUN2-24,263,402,miss,4,0,0,Stimuli\pitcher02b.jpg,Left,Kitchen,818,168,4,4000,6000
5,2,RUN2-25,311,263,miss,4,0,0,Stimuli\sricornhat.jpg,Right,Clothing,1126,169,4,6000,4000
5,2,RUN2-26,229,311,Source hit,1,1,1,Stimuli\coconut.jpg,Right,Food,926,170,4,4000,6000
5,2,RUN2-27,232,229,Source hit,1,1,1,Stimuli\mug05.jpg,Right,Kitchen,841,171,4,6000,4000
5,2,RUN2-28,448,232,Source miss,3,0,1,Stimuli\fountainpen.jpg,Left,Stationary,1491,172,4,4000,2000
5,2,RUN2-29,257,448,Source hit,1,1,1,Stimuli\mug01.jpg,Right,Kitchen,698,173,4,2000,6000
5,2,RUN2-30,496,257,Source hit,1,1,1,Stimuli\cigar.jpg,Right,Game & entertainment,781,174,4,6000,4000
5,2,RUN2-31,257,496,miss,4,0,0,Stimuli\binder03b.jpg,Right,Stationary,940,175,4,4000,6000
5,2,RUN2-32,327,257,Source miss,3,0,1,Stimuli\electricoutlet.jpg,Right,Electronics,2033,176,4,6000,2000
5,2,RUN2-33,283,327,Source hit,1,1,1,Stimuli\strawberry.jpg,Left,Food,678,177,4,2000,6000
5,2,RUN2-34,290,283,Source hit,1,1,1,Stimuli\recorder04.jpg,Right,Musical instrument,1035,178,4,6000,4000
5,2,RUN2-35,241,290,Source miss,3,0,1,Stimuli\bracelet04.jpg,Right,Decorations & Gift,1800,179,4,4000,4000
5,2,RUN2-36,571,241,Source hit,1,1,1,Stimuli\schoolbus.jpg,Right,Vehicle,1024,180,4,4000,6000
5,2,RUN2-37,358,571,Source hit,1,1,1,Stimuli\cigarette.jpg,Right,Game & entertainment,939,181,4,6000,2000
5,2,RUN2-38,564,358,Source hit,1,1,1,Stimuli\cherrypicker.jpg,Left,Vehicle,1547,182,4,2000,2000
5,2,RUN2-39,350,564,Source hit,1,1,1,Stimuli\jewelrybox01b.jpg,Left,Decorations & Gift,779,183,4,2000,2000
5,2,RUN2-40,227,350,Source miss,3,0,1,Stimuli\fence02.jpg,Right,Building infrastructure,1804,184,4,2000,6000
5,2,RUN2-41,934,227,Source hit,1,1,1,Stimuli\chessboard.jpg,Left,Game & entertainment,789,185,4,6000,2000
5,2,RUN2-42,307,934,Source miss,3,0,1,Stimuli\scrubbingbrush05b.jpg,Left,Household article,1270,186,4,2000,2000
5,2,RUN2-43,237,307,Source miss,3,0,1,Stimuli\belt02a.jpg,Right,Clothing,1396,187,4,2000,2000
5,2,RUN2-44,292,237,miss,4,0,0,Stimuli\shread02.jpg,Left,Household article,1356,188,4,2000,6000
5,2,RUN2-45,421,292,Source hit,1,1,1,Stimuli\mango01.jpg,Left,Food,1270,189,4,6000,2000
5,2,RUN2-46,333,421,miss,4,0,0,Stimuli\petcarrier.jpg,Right,Household article,805,190,4,2000,4000
5,2,RUN2-47,256,333,Source miss,3,0,1,Stimuli\footballhelmet.jpg,Right,Outdoor & sport,2059,191,4,4000,2000
5,2,RUN2-48,240,256,Source hit,1,1,1,Stimuli\crosscountryski.jpg,Left,Outdoor & sport,717,192,4,2000,2000
5,3,RUN3-2,411,323,Source hit,1,1,1,Stimuli\mirror01.jpg,Left,Decorations & Gift,1772,2,1,4000,4000
5,3,RUN3-3,277,411,Source hit,1,1,1,Stimuli\steeringwheel.jpg,Right,Vehicle,1030,3,1,4000,6000
5,3,RUN3-4,356,277,Source miss,3,0,1,Stimuli\wallclock.jpg,Left,Household article,1888,4,1,6000,6000
5,3,RUN3-5,576,356,miss,4,0,0,Stimuli\shermometer02b.jpg,Left,Household article,1711,5,1,6000,2000
5,3,RUN3-6,589,576,Source miss,3,0,1,Stimuli\clarinet.jpg,Left,Musical instrument,1429,6,1,2000,6000
5,3,RUN3-7,559,589,Source hit,1,1,1,Stimuli\Saillight.jpg,Right,Vehicle,1975,7,1,6000,6000
5,3,RUN3-8,382,559,Source hit,1,1,1,Stimuli\lectern01.jpg,Right,Electronics,1159,8,1,6000,6000
5,3,RUN3-9,503,382,Source hit,1,1,1,Stimuli\birthdaycandle.jpg,Left,Decorations & Gift,1193,9,1,6000,2000
5,3,RUN3-10,228,503,Source hit,1,1,1,Stimuli\mathcompass.jpg,Right,Stationary,2040,10,1,2000,4000
5,3,RUN3-11,239,228,miss,4,0,0,Stimuli\waterfountain02.jpg,Left,Building infrastructure,1164,11,1,4000,6000
5,3,RUN3-12,491,239,Source miss,3,0,1,Stimuli\fork03c.jpg,Right,Kitchen,2840,12,1,6000,4000
5,3,RUN3-13,495,491,Source miss,3,0,1,Stimuli\shorts01.jpg,Left,Clothing,2002,13,1,4000,2000
5,3,RUN3-14,519,495,Source missatribution,2,0,1,Stimuli\cooler01.jpg,Left,Outdoor & sport,2581,14,1,2000,4000
5,3,RUN3-15,249,519,Source hit,1,1,1,Stimuli\jack.jpg,Left,Electronics,1659,15,1,4000,4000
5,3,RUN3-16,333,249,Source hit,1,1,1,Stimuli\hockeystick.jpg,Right,Outdoor & sport,1070,16,1,4000,2000
5,3,RUN3-17,606,333,Source hit,1,1,1,Stimuli\horseshoe.jpg,Right,Game & entertainment,1297,17,1,2000,2000
5,3,RUN3-18,241,606,Source hit,1,1,1,Stimuli\menwashroomsign.jpg,Right,Building infrastructure,1486,18,1,2000,6000
5,3,RUN3-19,489,241,Source hit,1,1,1,Stimuli\gamecontroller01.jpg,Left,Game & entertainment,806,19,1,6000,2000
5,3,RUN3-20,252,489,Source miss,3,0,1,Stimuli\flask.jpg,Left,Kitchen,1732,20,1,2000,6000
5,3,RUN3-21,236,252,Source miss,3,0,1,Stimuli\linedpaper.jpg,Right,Stationary,1567,21,1,6000,6000
5,3,RUN3-22,267,236,Source hit,1,1,1,Stimuli\plate01b.jpg,Right,Kitchen,880,22,1,6000,6000
5,3,RUN3-23,468,267,Source missatribution,2,0,1,Stimuli\windshieldwiper02.jpg,Left,Vehicle,2058,23,1,6000,2000
5,3,RUN3-24,293,468,Source hit,1,1,1,Stimuli\sausage.jpg,Right,Food,1113,24,1,2000,6000
5,3,RUN3-25,402,293,Source hit,1,1,1,Stimuli\boatmotor.jpg,Right,Outdoor & sport,1253,25,1,6000,2000
5,3,RUN3-26,377,402,Source miss,3,0,1,Stimuli\highstrikergame.jpg,Right,Game & entertainment,1590,26,1,2000,4000
5,3,RUN3-27,297,377,Source hit,1,1,1,Stimuli\rainstick.jpg,Left,Musical instrument,1318,27,1,4000,2000
5,3,RUN3-28,218,297,Source miss,3,0,1,Stimuli\gamepiece.jpg,Left,Game & entertainment,2093,28,1,2000,4000
5,3,RUN3-29,432,218,miss,4,0,0,Stimuli\glasses01a.jpg,Right,Clothing,1526,29,1,4000,2000
5,3,RUN3-30,299,432,Source miss,3,0,1,Stimuli\broom01.jpg,Right,Household article,1321,30,1,2000,4000
5,3,RUN3-31,268,299,Source hit,1,1,1,Stimuli\ballofstring.jpg,Right,Household article,1303,31,1,4000,6000
5,3,RUN3-32,359,268,Source hit,1,1,1,Stimuli\giftbow04.jpg,Right,Decorations & Gift,1357,32,1,6000,4000
5,3,RUN3-33,457,359,miss,4,0,0,Stimuli\usbcable01a.jpg,Right,Electronics,1852,33,1,4000,2000
5,3,RUN3-34,243,457,Source miss,3,0,1,Stimuli\fluorescentlightbulb.jpg,Left,Electronics,1529,34,1,2000,6000
5,3,RUN3-35,258,243,Source hit,1,1,1,Stimuli\seabag.jpg,Right,Food,963,35,1,6000,4000
5,3,RUN3-36,366,258,Source miss,3,0,1,Stimuli\windmill.jpg,Right,Building infrastructure,1620,36,1,4000,4000
5,3,RUN3-37,287,366,Source hit,1,1,1,Stimuli\bagofpowder.jpg,Left,Food,1027,37,1,4000,6000
5,3,RUN3-38,578,287,Source hit,1,1,1,Stimuli\flag.jpg,Right,Decorations & Gift,954,38,1,6000,2000
5,3,RUN3-39,336,578,Source hit,1,1,1,Stimuli\papertray.jpg,Left,Stationary,933,39,1,2000,2000
5,3,RUN3-40,424,336,Source miss,3,0,1,Stimuli\balalaika.jpg,Right,Musical instrument,2096,40,1,2000,2000
5,3,RUN3-41,344,424,miss,4,0,0,Stimuli\skihelmet01.jpg,Left,Outdoor & sport,1347,41,1,2000,2000
5,3,RUN3-42,264,344,Source miss,3,0,1,Stimuli\safarihat.jpg,Right,Clothing,1732,42,1,2000,4000
5,3,RUN3-43,327,264,Source hit,1,1,1,Stimuli\rawchicken.jpg,Left,Food,1076,43,1,4000,2000
5,3,RUN3-44,410,327,miss,4,0,0,Stimuli\porsche.jpg,Left,Vehicle,1409,44,1,2000,4000
5,3,RUN3-45,318,410,Source hit,1,1,1,Stimuli\drum01.jpg,Right,Musical instrument,1513,45,1,4000,4000
5,3,RUN3-46,389,318,Source hit,1,1,1,Stimuli\chalk.jpg,Left,Stationary,932,46,1,4000,4000
5,3,RUN3-47,255,389,Source hit,1,1,1,Stimuli\soccercleat01.jpg,Left,Clothing,1122,47,1,4000,6000
5,3,RUN3-48,294,255,Source hit,1,1,1,Stimuli\pot02a.jpg,Left,Kitchen,1396,48,1,6000,6000
5,4,RUN4-2,264,888,Source hit,1,1,1,Stimuli\photocopier.jpg,Left,Electronics,966,98,3,6000,6000
5,4,RUN4-3,405,264,Source hit,1,1,1,Stimuli\desktopcomputer.jpg,Right,Electronics,1603,99,3,6000,2000
5,4,RUN4-4,256,405,Source miss,3,0,1,Stimuli\pacifier02d.jpg,Right,Game & entertainment,2187,100,3,2000,2000
5,4,RUN4-5,326,256,Source hit,1,1,1,Stimuli\gong.jpg,Right,Musical instrument,1888,101,3,2000,4000
5,4,RUN4-6,228,326,Source hit,1,1,1,Stimuli\pottery.jpg,Left,Decorations & Gift,1958,102,3,4000,4000
5,4,RUN4-7,279,228,Source hit,1,1,1,Stimuli\safetyglasses.jpg,Left,Clothing,788,103,3,4000,2000
5,4,RUN4-8,393,279,Source miss,3,0,1,Stimuli\microphone01.jpg,Left,Electronics,1248,104,3,2000,4000
5,4,RUN4-9,212,393,Source hit,1,1,1,Stimuli\lei.jpg,Right,Decorations & Gift,1421,105,3,4000,4000
5,4,RUN4-10,444,212,Source hit,1,1,1,Stimuli\shoulderpad.jpg,Right,Outdoor & sport,1087,106,3,4000,2000
5,4,RUN4-11,462,444,Source hit,1,1,1,Stimuli\sumber3.jpg,Right,Game & entertainment,1191,107,3,2000,4000
5,4,RUN4-12,407,462,Source hit,1,1,1,Stimuli\waterbottle01b.jpg,Left,Food,2315,108,3,4000,2000
5,4,RUN4-13,347,407,Source hit,1,1,1,Stimuli\ashtray01.jpg,Left,Household article,873,109,3,2000,2000
5,4,RUN4-14,248,347,Source hit,1,1,1,Stimuli\moccasin.jpg,Right,Clothing,891,110,3,2000,2000
5,4,RUN4-15,249,248,Source hit,1,1,1,Stimuli\sponge01.jpg,Right,Household article,2271,111,3,2000,6000
5,4,RUN4-16,650,249,Source hit,1,1,1,Stimuli\baseballbat.jpg,Left,Outdoor & sport,1641,112,3,6000,2000
5,4,RUN4-17,196,650,Source hit,1,1,1,Stimuli\shimble.jpg,Right,Household article,2019,113,3,2000,4000
5,4,RUN4-18,289,196,Source hit,1,1,1,Stimuli\bag.jpg,Left,Stationary,937,114,3,4000,4000
5,4,RUN4-19,319,289,Source miss,3,0,1,Stimuli\christmasball.jpg,Left,Decorations & Gift,1439,115,3,4000,2000
5,4,RUN4-20,242,319,Source hit,1,1,1,Stimuli\ruins.jpg,Left,Building infrastructure,718,116,3,2000,4000
5,4,RUN4-21,314,242,Source hit,1,1,1,Stimuli\keyboard.jpg,Left,Musical instrument,1018,117,3,4000,2000
5,4,RUN4-22,214,314,Source miss,3,0,1,Stimuli\gutteranddrainpipe.jpg,Left,Building infrastructure,1214,118,3,2000,6000
5,4,RUN4-23,229,214,Source hit,1,1,1,Stimuli\ruler04.jpg,Right,Stationary,963,119,3,6000,4000
5,4,RUN4-24,292,229,Source hit,1,1,1,Stimuli\rollerblade.jpg,Left,Outdoor & sport,1553,120,3,4000,4000
5,4,RUN4-25,244,292,Source hit,1,1,1,Stimuli\road02.jpg,Right,Building infrastructure,949,121,3,4000,6000
5,4,RUN4-26,304,244,Source miss,3,0,1,Stimuli\sableknife02.jpg,Left,Kitchen,1800,122,3,6000,6000
5,4,RUN4-27,302,304,Source hit,1,1,1,Stimuli\carbattery.jpg,Right,Electronics,1246,123,3,6000,6000
5,4,RUN4-28,433,302,Source hit,1,1,1,Stimuli\raspberry01.jpg,Right,Food,714,124,3,6000,6000
5,4,RUN4-29,603,433,Source miss,3,0,1,Stimuli\amphora.jpg,Right,Decorations & Gift,1170,125,3,6000,2000
5,4,RUN4-30,245,603,Source hit,1,1,1,Stimuli\dumptruck.jpg,Right,Vehicle,940,126,3,2000,6000
5,4,RUN4-31,577,245,miss,4,0,0,Stimuli\metronome.jpg,Right,Musical instrument,2714,127,3,6000,2000
5,4,RUN4-32,251,577,miss,4,0,0,Stimuli\jeans01.jpg,Right,Clothing,1025,128,3,2000,4000
5,4,RUN4-33,491,251,Source hit,1,1,1,Stimuli\spacerover.jpg,Left,Vehicle,1011,129,3,4000,2000
5,4,RUN4-34,220,491,Source hit,1,1,1,Stimuli\cabasa.jpg,Left,Musical instrument,836,130,3,2000,6000
5,4,RUN4-35,213,220,Source hit,1,1,1,Stimuli\staple.jpg,Right,Stationary,802,131,3,6000,6000
5,4,RUN4-36,395,213,Source hit,1,1,1,Stimuli\frisbee.jpg,Right,Outdoor & sport,913,132,3,6000,2000
5,4,RUN4-37,494,395,Source hit,1,1,1,Stimuli\parkingmeter.jpg,Right,Building infrastructure,1351,133,3,2000,4000
5,4,RUN4-38,697,494,Source hit,1,1,1,Stimuli\scissors01.jpg,Left,Stationary,728,134,3,4000,2000
5,4,RUN4-39,229,697,Source hit,1,1,1,Stimuli\wheelchair.jpg,Right,Vehicle,1049,135,3,2000,6000
5,4,RUN4-40,218,229,miss,4,0,0,Stimuli\wagonwheel.jpg,Left,Vehicle,1856,136,3,6000,4000
5,4,RUN4-41,276,218,Source hit,1,1,1,Stimuli\mrpotatohead.jpg,Left,Game & entertainment,693,137,3,4000,4000
5,4,RUN4-42,233,276,miss,4,0,0,Stimuli\grill.jpg,Right,Kitchen,1830,138,3,4000,6000
5,4,RUN4-43,0,233,Source hit,1,1,1,Stimuli\mousetrap.jpg,Left,Household article,861,139,3,6000,6000
5,4,RUN4-44,265,0,Source miss,3,0,1,Stimuli\woodenshoe.jpg,Left,Clothing,1339,140,3,6000,6000
5,4,RUN4-45,259,265,Source hit,1,1,1,Stimuli\honeycomb.jpg,Left,Food,880,141,3,6000,6000
5,4,RUN4-46,394,259,miss,4,0,0,Stimuli\fonduefork01.jpg,Right,Kitchen,2304,142,3,6000,4000
5,4,RUN4-47,601,394,Source hit,1,1,1,Stimuli\marble.jpg,Left,Game & entertainment,1483,143,3,4000,2000
5,4,RUN4-48,220,601,miss,4,0,0,Stimuli\macaroni01.jpg,Right,Food,1357,144,3,2000,4000
6,1,RUN1-2,344,398,Source hit,1,1,1,Stimuli\audiocablesplitter.jpg,Left,Electronics,1131,146,4,4000,4000
6,1,RUN1-3,219,344,Source hit,1,1,1,Stimuli\plasticgallon.jpg,Left,Household article,1141,147,4,4000,6000
6,1,RUN1-4,394,219,Source hit,1,1,1,Stimuli\pilgrimhat.jpg,Right,Clothing,1063,148,4,6000,4000
6,1,RUN1-5,387,394,Source hit,1,1,1,Stimuli\partyhat.jpg,Right,Decorations & Gift,1051,149,4,4000,2000
6,1,RUN1-6,268,387,Source miss,3,0,1,Stimuli\rowboat.jpg,Right,Vehicle,2117,150,4,2000,6000
6,1,RUN1-7,258,268,Source hit,1,1,1,Stimuli\glassescase.jpg,Left,Clothing,1274,151,4,6000,6000
6,1,RUN1-8,282,258,Source hit,1,1,1,Stimuli\gearshift.jpg,Right,Vehicle,1011,152,4,6000,6000
6,1,RUN1-9,304,282,Source hit,1,1,1,Stimuli\scotchtape.jpg,Right,Stationary,1505,153,4,6000,6000
6,1,RUN1-10,384,304,Source hit,1,1,1,Stimuli\poloshirt.jpg,Left,Clothing,1371,154,4,6000,2000
6,1,RUN1-11,378,384,Source hit,1,1,1,Stimuli\ball02.jpg,Right,Game & entertainment,1020,155,4,2000,2000
6,1,RUN1-12,354,378,Source hit,1,1,1,Stimuli\bowlingball.jpg,Right,Outdoor & sport,1350,156,4,2000,2000
6,1,RUN1-13,263,354,Source miss,3,0,1,Stimuli\racquetballracket.jpg,Right,Outdoor & sport,1744,157,4,2000,2000
6,1,RUN1-14,274,263,Source hit,1,1,1,Stimuli\guitarcase.jpg,Left,Musical instrument,1321,158,4,2000,2000
6,1,RUN1-15,220,274,Source hit,1,1,1,Stimuli\womenwashroomsign.jpg,Left,Building infrastructure,1161,159,4,2000,6000
6,1,RUN1-16,244,220,Source hit,1,1,1,Stimuli\musicsheet.jpg,Left,Musical instrument,1191,160,4,6000,6000
6,1,RUN1-17,899,244,Source hit,1,1,1,Stimuli\cookiecutter.jpg,Right,Kitchen,1055,161,4,6000,4000
6,1,RUN1-18,358,899,Source miss,3,0,1,Stimuli\rearviewmirror.jpg,Left,Vehicle,1816,162,4,4000,4000
6,1,RUN1-19,321,358,Source hit,1,1,1,Stimuli\giftbow02b.jpg,Right,Decorations & Gift,1104,163,4,4000,4000
6,1,RUN1-20,198,321,miss,4,0,0,Stimuli\espressomachine.jpg,Left,Kitchen,2499,164,4,4000,6000
6,1,RUN1-21,251,198,Source hit,1,1,1,Stimuli\flyswatter.jpg,Left,Household article,2184,165,4,6000,2000
6,1,RUN1-22,230,251,Source hit,1,1,1,Stimuli\salsa.jpg,Left,Food,946,166,4,2000,6000
6,1,RUN1-23,291,230,Source hit,1,1,1,Stimuli\payphone.jpg,Left,Electronics,1370,167,4,6000,6000
6,1,RUN1-24,296,291,Source hit,1,1,1,Stimuli\sravelmug.jpg,Left,Kitchen,1633,168,4,6000,6000
6,1,RUN1-25,255,296,Source hit,1,1,1,Stimuli\radiator.jpg,Right,Building infrastructure,2138,169,4,6000,6000
6,1,RUN1-26,364,255,Source miss,3,0,1,Stimuli\key07.jpg,Right,Household article,2422,170,4,6000,6000
6,1,RUN1-27,291,364,miss,4,0,0,Stimuli\bassguitar.jpg,Right,Musical instrument,1910,171,4,6000,2000
6,1,RUN1-28,307,291,Source hit,1,1,1,Stimuli\airhockeytable.jpg,Right,Game & entertainment,1160,172,4,2000,4000
6,1,RUN1-29,322,307,Source hit,1,1,1,Stimuli\saxophone.jpg,Right,Musical instrument,2097,173,4,4000,4000
6,1,RUN1-30,266,322,Source hit,1,1,1,Stimuli\portapotty.jpg,Left,Building infrastructure,2485,174,4,4000,4000
6,1,RUN1-31,587,266,Source hit,1,1,1,Stimuli\button01.jpg,Right,Clothing,2475,175,4,4000,2000
6,1,RUN1-32,349,587,Source hit,1,1,1,Stimuli\gift01.jpg,Left,Decorations & Gift,1209,176,4,2000,2000
6,1,RUN1-33,334,349,Source hit,1,1,1,Stimuli\bumpercar.jpg,Left,Vehicle,1158,177,4,2000,2000
6,1,RUN1-34,187,334,Source hit,1,1,1,Stimuli\horsefigurine.jpg,Left,Decorations & Gift,1104,178,4,2000,4000
6,1,RUN1-35,293,187,Source missatribution,2,0,1,Stimuli\postitnote.jpg,Left,Stationary,2220,179,4,4000,2000
6,1,RUN1-36,184,293,Source hit,1,1,1,Stimuli\crumpledpaper.jpg,Left,Stationary,1210,180,4,2000,4000
6,1,RUN1-37,193,184,Source hit,1,1,1,Stimuli\aceofdiamond.jpg,Left,Game & entertainment,1780,181,4,4000,4000
6,1,RUN1-38,257,193,Source hit,1,1,1,Stimuli\icebucket.jpg,Right,Kitchen,1214,182,4,4000,6000
6,1,RUN1-39,251,257,Source hit,1,1,1,Stimuli\remotecontrol04.jpg,Right,Electronics,1241,183,4,6000,6000
6,1,RUN1-40,404,251,Source hit,1,1,1,Stimuli\snowman.jpg,Left,Outdoor & sport,1381,184,4,6000,2000
6,1,RUN1-41,299,404,Source hit,1,1,1,Stimuli\slidetray.jpg,Right,Electronics,1157,185,4,2000,2000
6,1,RUN1-42,300,299,Source hit,1,1,1,Stimuli\springroll.jpg,Right,Food,960,186,4,2000,4000
6,1,RUN1-43,890,300,Source miss,3,0,1,Stimuli\mushroom01.jpg,Left,Food,2112,187,4,4000,2000
6,1,RUN1-44,230,890,Source hit,1,1,1,Stimuli\blackolive.jpg,Right,Food,1325,188,4,2000,6000
6,1,RUN1-45,229,230,Source hit,1,1,1,Stimuli\bridge.jpg,Right,Building infrastructure,1477,189,4,6000,4000
6,1,RUN1-46,212,229,Source hit,1,1,1,Stimuli\fireextinguisher01.jpg,Right,Household article,2093,190,4,4000,4000
6,1,RUN1-47,206,212,Source hit,1,1,1,Stimuli\speedball.jpg,Left,Outdoor & sport,1122,191,4,4000,4000
6,1,RUN1-48,366,206,Source hit,1,1,1,Stimuli\8ball.jpg,Left,Game & entertainment,1202,192,4,4000,2000
6,2,RUN2-2,363,298,Source hit,1,1,1,Stimuli\mango01.jpg,Left,Food,1025,50,2,6000,2000
6,2,RUN2-3,375,363,Source missatribution,2,0,1,Stimuli\bracelet04.jpg,Right,Decorations & Gift,1412,51,2,2000,4000
6,2,RUN2-4,353,375,Source hit,1,1,1,Stimuli\worldmap.jpg,Left,Stationary,1269,52,2,4000,4000
6,2,RUN2-5,327,353,Source hit,1,1,1,Stimuli\windturbine.jpg,Left,Building infrastructure,1214,53,2,4000,6000
6,2,RUN2-6,353,327,Source hit,1,1,1,Stimuli\srophy01.jpg,Left,Decorations & Gift,1714,54,2,6000,4000
6,2,RUN2-7,385,353,Source hit,1,1,1,Stimuli\mug05.jpg,Right,Kitchen,988,55,2,4000,4000
6,2,RUN2-8,330,385,Source hit,1,1,1,Stimuli\srafficlight.jpg,Left,Building infrastructure,2531,56,2,4000,4000
6,2,RUN2-9,324,330,Source hit,1,1,1,Stimuli\cigarette.jpg,Right,Game & entertainment,2277,57,2,4000,2000
6,2,RUN2-10,326,324,Source hit,1,1,1,Stimuli\mug01.jpg,Right,Kitchen,1735,58,2,2000,6000
6,2,RUN2-11,347,326,Source hit,1,1,1,Stimuli\cigar.jpg,Right,Game & entertainment,1081,59,2,6000,4000
6,2,RUN2-12,377,347,Source hit,1,1,1,Stimuli\doublebass.jpg,Left,Musical instrument,1526,60,2,4000,2000
6,2,RUN2-13,346,377,Source hit,1,1,1,Stimuli\shumbtack02a.jpg,Right,Stationary,1740,61,2,2000,4000
6,2,RUN2-14,290,346,Source hit,1,1,1,Stimuli\exercisebench.jpg,Left,Outdoor & sport,1154,62,2,4000,4000
6,2,RUN2-15,412,290,Source hit,1,1,1,Stimuli\sractor.jpg,Right,Vehicle,1905,63,2,4000,6000
6,2,RUN2-16,393,412,Source hit,1,1,1,Stimuli\footballhelmet.jpg,Right,Outdoor & sport,1103,64,2,6000,2000
6,2,RUN2-17,348,393,Source hit,1,1,1,Stimuli\cherrypicker.jpg,Left,Vehicle,1625,65,2,2000,2000
6,2,RUN2-18,267,348,Source hit,1,1,1,Stimuli\shread02.jpg,Left,Household article,1716,66,2,2000,6000
6,2,RUN2-19,277,267,Source hit,1,1,1,Stimuli\wire.jpg,Left,Electronics,2248,67,2,6000,6000
6,2,RUN2-20,347,277,Source hit,1,1,1,Stimuli\fence02.jpg,Right,Building infrastructure,1879,68,2,6000,6000
6,2,RUN2-21,442,347,Source miss,3,0,1,Stimuli\belt02a.jpg,Right,Clothing,2334,69,2,6000,2000
6,2,RUN2-22,328,442,Source hit,1,1,1,Stimuli\chessboard.jpg,Left,Game & entertainment,981,70,2,2000,2000
6,2,RUN2-23,280,328,Source hit,1,1,1,Stimuli\petcarrier.jpg,Right,Household article,1252,71,2,2000,4000
6,2,RUN2-24,323,280,Source hit,1,1,1,Stimuli\schoolbus.jpg,Right,Vehicle,1852,72,2,4000,6000
6,2,RUN2-25,275,323,miss,4,0,0,Stimuli\cornet.jpg,Left,Musical instrument,2191,73,2,6000,6000
6,2,RUN2-26,681,275,Source hit,1,1,1,Stimuli\crosscountryski.jpg,Left,Outdoor & sport,2289,74,2,6000,2000
6,2,RUN2-27,336,681,Source hit,1,1,1,Stimuli\chessknight03a.jpg,Left,Game & entertainment,1098,75,2,2000,4000
6,2,RUN2-28,394,336,Source hit,1,1,1,Stimuli\jesusstatue.jpg,Right,Decorations & Gift,1248,76,2,4000,2000
6,2,RUN2-29,348,394,Source hit,1,1,1,Stimuli\cola.jpg,Right,Food,1110,77,2,2000,4000
6,2,RUN2-30,255,348,Source hit,1,1,1,Stimuli\wallet02a.jpg,Left,Clothing,1544,78,2,4000,6000
6,2,RUN2-31,288,255,Source hit,1,1,1,Stimuli\coconut.jpg,Right,Food,1157,79,2,6000,6000
6,2,RUN2-32,355,288,Source hit,1,1,1,Stimuli\pitcher02b.jpg,Left,Kitchen,1381,80,2,6000,6000
6,2,RUN2-33,461,355,Source hit,1,1,1,Stimuli\sshirt.jpg,Left,Clothing,1252,81,2,6000,2000
6,2,RUN2-34,323,461,Source hit,1,1,1,Stimuli\windshieldwasherfluid.jpg,Right,Household article,1841,82,2,2000,6000
6,2,RUN2-35,464,323,Source hit,1,1,1,Stimuli\electricoutlet.jpg,Right,Electronics,1738,83,2,6000,2000
6,2,RUN2-36,199,464,Source hit,1,1,1,Stimuli\saxisign.jpg,Left,Vehicle,1143,84,2,2000,4000
6,2,RUN2-37,340,199,Source hit,1,1,1,Stimuli\bicycle.jpg,Right,Outdoor & sport,1276,85,2,4000,2000
6,2,RUN2-38,262,340,Source hit,1,1,1,Stimuli\fountainpen.jpg,Left,Stationary,1296,86,2,2000,2000
6,2,RUN2-39,236,262,Source hit,1,1,1,Stimuli\sricornhat.jpg,Right,Clothing,1707,87,2,2000,4000
6,2,RUN2-40,275,236,Source hit,1,1,1,Stimuli\recorder04.jpg,Right,Musical instrument,1177,88,2,4000,4000
6,2,RUN2-41,364,275,Source hit,1,1,1,Stimuli\cakeplatter.jpg,Left,Kitchen,1476,89,2,4000,6000
6,2,RUN2-42,390,364,Source hit,1,1,1,Stimuli\binder03b.jpg,Right,Stationary,2031,90,2,6000,6000
6,2,RUN2-43,330,390,Source hit,1,1,1,Stimuli\jewelrybox01b.jpg,Left,Decorations & Gift,976,91,2,6000,2000
6,2,RUN2-44,279,330,Source hit,1,1,1,Stimuli\barbedwire01.jpg,Right,Building infrastructure,1421,92,2,2000,4000
6,2,RUN2-45,307,279,Source hit,1,1,1,Stimuli\battery02b.jpg,Left,Electronics,1184,93,2,4000,4000
6,2,RUN2-46,374,307,Source hit,1,1,1,Stimuli\strawberry.jpg,Left,Food,1811,94,2,4000,6000
6,2,RUN2-47,631,374,Source hit,1,1,1,Stimuli\scrubbingbrush05b.jpg,Left,Household article,1341,95,2,6000,2000
6,2,RUN2-48,796,631,Source hit,1,1,1,Stimuli\electricdrumset.jpg,Right,Musical instrument,1275,96,2,2000,2000
6,3,RUN3-2,360,338,Source hit,1,1,1,Stimuli\ballofstring.jpg,Right,Household article,1202,2,1,4000,6000
6,3,RUN3-3,443,360,Source hit,1,1,1,Stimuli\mathcompass.jpg,Right,Stationary,2025,3,1,6000,4000
6,3,RUN3-4,304,443,Source hit,1,1,1,Stimuli\skihelmet01.jpg,Left,Outdoor & sport,1891,4,1,4000,2000
6,3,RUN3-5,309,304,Source missatribution,2,0,1,Stimuli\steeringwheel.jpg,Right,Vehicle,1282,5,1,2000,6000
6,3,RUN3-6,364,309,Source miss,3,0,1,Stimuli\linedpaper.jpg,Right,Stationary,2480,6,1,6000,6000
6,3,RUN3-7,378,364,Source hit,1,1,1,Stimuli\usbcable01a.jpg,Right,Electronics,1840,7,1,6000,2000
6,3,RUN3-8,245,378,Source hit,1,1,1,Stimuli\jack.jpg,Left,Electronics,1068,8,1,2000,4000
6,3,RUN3-9,303,245,Source miss,3,0,1,Stimuli\fluorescentlightbulb.jpg,Left,Electronics,2373,9,1,4000,6000
6,3,RUN3-10,348,303,Source missatribution,2,0,1,Stimuli\windmill.jpg,Right,Building infrastructure,1843,10,1,6000,4000
6,3,RUN3-11,327,348,Source hit,1,1,1,Stimuli\mirror01.jpg,Left,Decorations & Gift,2560,11,1,4000,4000
6,3,RUN3-12,278,327,Source hit,1,1,1,Stimuli\broom01.jpg,Right,Household article,2204,12,1,4000,4000
6,3,RUN3-13,324,278,Source miss,3,0,1,Stimuli\flag.jpg,Right,Decorations & Gift,2286,13,1,4000,2000
6,3,RUN3-14,274,324,No response,0,0,0,Stimuli\sausage.jpg,Right,Food,0,14,1,2000,6000
6,3,RUN3-15,324,274,Source miss,3,0,1,Stimuli\shermometer02b.jpg,Left,Household article,2835,15,1,6000,2000
6,3,RUN3-16,414,324,Source hit,1,1,1,Stimuli\rawchicken.jpg,Left,Food,1157,16,1,2000,2000
6,3,RUN3-17,320,414,Source hit,1,1,1,Stimuli\windshieldwiper02.jpg,Left,Vehicle,1999,17,1,2000,2000
6,3,RUN3-18,287,320,Source hit,1,1,1,Stimuli\cooler01.jpg,Left,Outdoor & sport,1739,18,1,2000,4000
6,3,RUN3-19,283,287,Source miss,3,0,1,Stimuli\pot02a.jpg,Left,Kitchen,2054,19,1,4000,6000
6,3,RUN3-20,306,283,Source hit,1,1,1,Stimuli\clarinet.jpg,Left,Musical instrument,2082,20,1,6000,6000
6,3,RUN3-21,275,306,Source hit,1,1,1,Stimuli\porsche.jpg,Left,Vehicle,1989,21,1,6000,4000
6,3,RUN3-22,233,275,Source hit,1,1,1,Stimuli\giftbow04.jpg,Right,Decorations & Gift,2257,22,1,4000,4000
6,3,RUN3-23,258,233,miss,4,0,0,Stimuli\papertray.jpg,Left,Stationary,1670,23,1,4000,2000
6,3,RUN3-24,219,258,Source hit,1,1,1,Stimuli\seabag.jpg,Right,Food,1776,24,1,2000,4000
6,3,RUN3-25,262,219,Source miss,3,0,1,Stimuli\highstrikergame.jpg,Right,Game & entertainment,2140,25,1,4000,4000
6,3,RUN3-26,365,262,Source miss,3,0,1,Stimuli\glasses01a.jpg,Right,Clothing,2222,26,1,4000,2000
6,3,RUN3-27,289,365,miss,4,0,0,Stimuli\boatmotor.jpg,Right,Outdoor & sport,2535,27,1,2000,2000
6,3,RUN3-28,240,289,Source hit,1,1,1,Stimuli\flask.jpg,Left,Kitchen,2556,28,1,2000,6000
6,3,RUN3-29,312,240,Source missatribution,2,0,1,Stimuli\Saillight.jpg,Right,Vehicle,1685,29,1,6000,6000
6,3,RUN3-30,360,312,Source hit,1,1,1,Stimuli\horseshoe.jpg,Right,Game & entertainment,1375,30,1,6000,2000
6,3,RUN3-31,353,360,Source hit,1,1,1,Stimuli\menwashroomsign.jpg,Right,Building infrastructure,1571,31,1,2000,6000
6,3,RUN3-32,403,353,miss,4,0,0,Stimuli\wallclock.jpg,Left,Household article,1909,32,1,6000,6000
6,3,RUN3-33,371,403,Source miss,3,0,1,Stimuli\chalk.jpg,Left,Stationary,1942,33,1,6000,4000
6,3,RUN3-34,326,371,Source miss,3,0,1,Stimuli\fork03c.jpg,Right,Kitchen,1546,34,1,4000,4000
6,3,RUN3-35,287,326,miss,4,0,0,Stimuli\lectern01.jpg,Right,Electronics,1276,35,1,4000,6000
6,3,RUN3-36,354,287,Source miss,3,0,1,Stimuli\plate01b.jpg,Right,Kitchen,2046,36,1,6000,6000
6,3,RUN3-37,405,354,Source hit,1,1,1,Stimuli\gamepiece.jpg,Left,Game & entertainment,1687,37,1,6000,4000
6,3,RUN3-38,497,405,Source hit,1,1,1,Stimuli\rainstick.jpg,Left,Musical instrument,2250,38,1,4000,2000
6,3,RUN3-39,457,497,Source miss,3,0,1,Stimuli\birthdaycandle.jpg,Left,Decorations & Gift,2221,39,1,2000,2000
6,3,RUN3-40,347,457,Source hit,1,1,1,Stimuli\soccercleat01.jpg,Left,Clothing,1446,40,1,2000,6000
6,3,RUN3-41,383,347,Source hit,1,1,1,Stimuli\balalaika.jpg,Right,Musical instrument,1635,41,1,6000,2000
6,3,RUN3-42,354,383,Source hit,1,1,1,Stimuli\drum01.jpg,Right,Musical instrument,1944,42,1,2000,4000
6,3,RUN3-43,327,354,No response,0,0,0,Stimuli\waterfountain02.jpg,Left,Building infrastructure,0,43,1,4000,6000
6,3,RUN3-44,391,327,Source hit,1,1,1,Stimuli\hockeystick.jpg,Right,Outdoor & sport,985,44,1,6000,2000
6,3,RUN3-45,242,391,Source hit,1,1,1,Stimuli\shed02.jpg,Left,Building infrastructure,2281,45,1,2000,4000
6,3,RUN3-46,227,242,Source hit,1,1,1,Stimuli\bagofpowder.jpg,Left,Food,1227,46,1,4000,6000
6,3,RUN3-47,554,227,Source hit,1,1,1,Stimuli\shorts01.jpg,Left,Clothing,1513,47,1,6000,2000
6,3,RUN3-48,275,554,Source hit,1,1,1,Stimuli\gamecontroller01.jpg,Left,Game & entertainment,1348,48,1,2000,2000
6,4,RUN4-2,296,462,Source hit,1,1,1,Stimuli\safetyglasses.jpg,Left,Clothing,1376,98,3,4000,2000
6,4,RUN4-3,208,296,Source hit,1,1,1,Stimuli\fonduefork01.jpg,Right,Kitchen,1480,99,3,2000,4000
6,4,RUN4-4,257,208,Source hit,1,1,1,Stimuli\shoulderpad.jpg,Right,Outdoor & sport,1311,100,3,4000,2000
6,4,RUN4-5,279,257,Source hit,1,1,1,Stimuli\baseballbat.jpg,Left,Outdoor & sport,1837,101,3,2000,2000
6,4,RUN4-6,238,279,Source hit,1,1,1,Stimuli\spacerover.jpg,Left,Vehicle,1798,102,3,2000,2000
6,4,RUN4-7,261,238,Source hit,1,1,1,Stimuli\microphone01.jpg,Left,Electronics,1586,103,3,2000,4000
6,4,RUN4-8,250,261,Source miss,3,0,1,Stimuli\parkingmeter.jpg,Right,Building infrastructure,2632,104,3,4000,4000
6,4,RUN4-9,263,250,Source hit,1,1,1,Stimuli\gutteranddrainpipe.jpg,Left,Building infrastructure,1354,105,3,4000,6000
6,4,RUN4-10,289,263,Source hit,1,1,1,Stimuli\mrpotatohead.jpg,Left,Game & entertainment,1302,106,3,6000,4000
6,4,RUN4-11,492,289,Source miss,3,0,1,Stimuli\pacifier02d.jpg,Right,Game & entertainment,2780,107,3,4000,2000
6,4,RUN4-12,251,492,Source hit,1,1,1,Stimuli\rollerblade.jpg,Left,Outdoor & sport,1088,108,3,2000,4000
6,4,RUN4-13,385,251,Source hit,1,1,1,Stimuli\metronome.jpg,Right,Musical instrument,1106,109,3,4000,2000
6,4,RUN4-14,333,385,Source hit,1,1,1,Stimuli\keyboard.jpg,Left,Musical instrument,1783,110,3,2000,2000
6,4,RUN4-15,263,333,Source hit,1,1,1,Stimuli\gong.jpg,Right,Musical instrument,1437,111,3,2000,4000
6,4,RUN4-16,227,263,Source hit,1,1,1,Stimuli\styrofoamcup.jpg,Left,Kitchen,1780,112,3,4000,6000
6,4,RUN4-17,300,227,Source hit,1,1,1,Stimuli\cabasa.jpg,Left,Musical instrument,1469,113,3,6000,6000
6,4,RUN4-18,332,300,Source hit,1,1,1,Stimuli\pottery.jpg,Left,Decorations & Gift,1140,114,3,6000,4000
6,4,RUN4-19,275,332,Source hit,1,1,1,Stimuli\ruler04.jpg,Right,Stationary,1674,115,3,4000,4000
6,4,RUN4-20,273,275,Source hit,1,1,1,Stimuli\wagonwheel.jpg,Left,Vehicle,1995,116,3,4000,4000
6,4,RUN4-21,343,273,Source hit,1,1,1,Stimuli\ashtray01.jpg,Left,Household article,1125,117,3,4000,2000
6,4,RUN4-22,286,343,Source hit,1,1,1,Stimuli\sableknife02.jpg,Left,Kitchen,1681,118,3,2000,6000
6,4,RUN4-23,289,286,Source hit,1,1,1,Stimuli\bag.jpg,Left,Stationary,1326,119,3,6000,4000
6,4,RUN4-24,335,289,Source hit,1,1,1,Stimuli\marble.jpg,Left,Game & entertainment,963,120,3,4000,2000
6,4,RUN4-25,275,335,Source hit,1,1,1,Stimuli\mousetrap.jpg,Left,Household article,2198,121,3,2000,6000
6,4,RUN4-26,503,275,Source miss,3,0,1,Stimuli\christmasball.jpg,Left,Decorations & Gift,2702,122,3,6000,2000
6,4,RUN4-27,274,503,Source hit,1,1,1,Stimuli\raspberry01.jpg,Right,Food,1109,123,3,2000,6000
6,4,RUN4-28,267,274,Source miss,3,0,1,Stimuli\carbattery.jpg,Right,Electronics,1752,124,3,6000,6000
6,4,RUN4-29,275,267,Source hit,1,1,1,Stimuli\waterbottle01b.jpg,Left,Food,2493,125,3,6000,2000
6,4,RUN4-30,229,275,Source hit,1,1,1,Stimuli\ruins.jpg,Left,Building infrastructure,1319,126,3,2000,4000
6,4,RUN4-31,719,229,Source hit,1,1,1,Stimuli\shimble.jpg,Right,Household article,1518,127,3,4000,4000
6,4,RUN4-32,306,719,Source hit,1,1,1,Stimuli\sponge01.jpg,Right,Household article,2001,128,3,4000,6000
6,4,RUN4-33,467,306,Source miss,3,0,1,Stimuli\scissors01.jpg,Left,Stationary,2287,129,3,6000,2000
6,4,RUN4-34,250,467,Source hit,1,1,1,Stimuli\photocopier.jpg,Left,Electronics,1077,130,3,2000,6000
6,4,RUN4-35,236,250,Source miss,3,0,1,Stimuli\jeans01.jpg,Right,Clothing,2790,131,3,6000,4000
6,4,RUN4-36,237,236,Source miss,3,0,1,Stimuli\staple.jpg,Right,Stationary,2207,132,3,4000,6000
6,4,RUN4-37,314,237,Source hit,1,1,1,Stimuli\grill.jpg,Right,Kitchen,1058,133,3,6000,6000
6,4,RUN4-38,299,314,Source hit,1,1,1,Stimuli\lei.jpg,Right,Decorations & Gift,1680,134,3,6000,4000
6,4,RUN4-39,308,299,Source hit,1,1,1,Stimuli\dumptruck.jpg,Right,Vehicle,1737,135,3,4000,6000
6,4,RUN4-40,379,308,Source hit,1,1,1,Stimuli\amphora.jpg,Right,Decorations & Gift,1937,136,3,6000,2000
6,4,RUN4-41,230,379,Source hit,1,1,1,Stimuli\road02.jpg,Right,Building infrastructure,1062,137,3,2000,6000
6,4,RUN4-42,216,230,Source hit,1,1,1,Stimuli\woodenshoe.jpg,Left,Clothing,1036,138,3,6000,6000
6,4,RUN4-43,679,216,Source miss,3,0,1,Stimuli\moccasin.jpg,Right,Clothing,2799,139,3,6000,2000
6,4,RUN4-44,362,679,Source hit,1,1,1,Stimuli\honeycomb.jpg,Left,Food,1086,140,3,2000,6000
6,4,RUN4-45,273,362,Source miss,3,0,1,Stimuli\wheelchair.jpg,Right,Vehicle,2038,141,3,6000,6000
6,4,RUN4-46,371,273,Source hit,1,1,1,Stimuli\desktopcomputer.jpg,Right,Electronics,1460,142,3,6000,2000
6,4,RUN4-47,452,371,Source hit,1,1,1,Stimuli\frisbee.jpg,Right,Outdoor & sport,1677,143,3,2000,2000
6,4,RUN4-48,251,452,Source hit,1,1,1,Stimuli\macaroni01.jpg,Right,Food,2315,144,3,2000,4000
12,1,RUN1-2,313,275,Source miss,3,0,1,Stimuli\bumpercar.jpg,Left,Vehicle,1835,98,3,2000,2000
12,1,RUN1-3,270,313,Source hit,1,1,1,Stimuli\fireextinguisher01.jpg,Right,Household article,1720,99,3,2000,4000
12,1,RUN1-4,331,270,Source miss,3,0,1,Stimuli\ball02.jpg,Right,Game & entertainment,1743,100,3,4000,2000
12,1,RUN1-5,238,331,Source miss,3,0,1,Stimuli\rowboat.jpg,Right,Vehicle,1985,101,3,2000,6000
12,1,RUN1-6,241,238,Source hit,1,1,1,Stimuli\speedball.jpg,Left,Outdoor & sport,1417,102,3,6000,4000
12,1,RUN1-7,216,241,miss,4,0,0,Stimuli\crumpledpaper.jpg,Left,Stationary,1115,103,3,4000,4000
12,1,RUN1-8,267,216,miss,4,0,0,Stimuli\womenwashroomsign.jpg,Left,Building infrastructure,1568,104,3,4000,6000
