Index,ID,RUN,Trial,PreRT,PostRT,Fate,Acc_coded,Source_Acc_coded,Hit_Acc_coded,Stimuli,Location,Category,RET_RT,Order_Session,PreITI1duration,PostITI1duration
1,10823,1,RUN1-2,789,344,Source hit,1,1,1,Stimuli\womenwashroomsign.jpg,Left,Building infrastructure,710,2,4000,6000
2,10823,1,RUN1-3,344,0,Source hit,1,1,1,Stimuli\button01.jpg,Right,Clothing,1166,2,6000,2000
3,10823,1,RUN1-4,0,687,Source hit,1,1,1,Stimuli\snowman.jpg,Left,Outdoor & sport,814,2,2000,2000
4,10823,1,RUN1-5,687,275,Source hit,1,1,1,Stimuli\blackolive.jpg,Right,Food,910,2,2000,6000
5,10823,1,RUN1-6,275,407,Source hit,1,1,1,Stimuli\poloshirt.jpg,Left,Clothing,920,2,6000,2000
6,10823,1,RUN1-7,407,514,Source hit,1,1,1,Stimuli\saxophone.jpg,Right,Musical instrument,1069,2,2000,4000
7,10823,1,RUN1-8,514,493,Source hit,1,1,1,Stimuli\plasticgallon.jpg,Left,Household article,815,2,4000,6000
8,10823,1,RUN1-9,493,553,miss,4,0,0,Stimuli\rowboat.jpg,Right,Vehicle,2383,2,6000,6000
9,10823,1,RUN1-10,553,482,Source hit,1,1,1,Stimuli\flyswatter.jpg,Left,Household article,893,2,6000,2000
10,10823,1,RUN1-11,482,544,Source hit,1,1,1,Stimuli\8ball.jpg,Left,Game & entertainment,819,2,2000,2000
11,10823,1,RUN1-12,544,588,Source hit,1,1,1,Stimuli\scotchtape.jpg,Right,Stationary,1130,2,2000,6000
12,10823,1,RUN1-13,588,301,Source hit,1,1,1,Stimuli\springroll.jpg,Right,Food,1352,2,6000,4000
13,10823,1,RUN1-14,301,687,Source hit,1,1,1,Stimuli\gearshift.jpg,Right,Vehicle,1400,2,4000,6000
14,10823,1,RUN1-15,687,953,Source hit,1,1,1,Stimuli\pilgrimhat.jpg,Right,Clothing,683,2,6000,4000
15,10823,1,RUN1-16,953,388,Source hit,1,1,1,Stimuli\cookiecutter.jpg,Right,Kitchen,1845,2,4000,4000
16,10823,1,RUN1-17,388,500,Source hit,1,1,1,Stimuli\rearviewmirror.jpg,Left,Vehicle,931,2,4000,4000
17,10823,1,RUN1-18,500,515,Source hit,1,1,1,Stimuli\remotecontrol04.jpg,Right,Electronics,1059,2,4000,6000
18,10823,1,RUN1-19,515,508,No response,0,0,0,Stimuli\speedball.jpg,Left,Outdoor & sport,0,2,6000,4000
19,10823,1,RUN1-20,508,289,Source hit,1,1,1,Stimuli\audiocablesplitter.jpg,Left,Electronics,867,2,4000,4000
20,10823,1,RUN1-21,289,336,Source hit,1,1,1,Stimuli\crumpledpaper.jpg,Left,Stationary,1368,2,4000,4000
21,10823,1,RUN1-22,336,283,Source hit,1,1,1,Stimuli\airhockeytable.jpg,Right,Game & entertainment,989,2,4000,4000
22,10823,1,RUN1-23,283,556,Source hit,1,1,1,Stimuli\key07.jpg,Right,Household article,962,2,4000,6000
23,10823,1,RUN1-24,556,648,Source hit,1,1,1,Stimuli\gift01.jpg,Left,Decorations & Gift,874,2,6000,2000
24,10823,1,RUN1-25,648,303,Source hit,1,1,1,Stimuli\musicsheet.jpg,Left,Musical instrument,900,2,2000,6000
25,10823,1,RUN1-26,303,466,Source hit,1,1,1,Stimuli\espressomachine.jpg,Left,Kitchen,946,2,6000,6000
26,10823,1,RUN1-27,466,258,Source hit,1,1,1,Stimuli\sravelmug.jpg,Left,Kitchen,953,2,6000,6000
27,10823,1,RUN1-28,258,669,Source hit,1,1,1,Stimuli\mushroom01.jpg,Left,Food,1258,2,6000,2000
28,10823,1,RUN1-29,669,268,Source hit,1,1,1,Stimuli\icebucket.jpg,Right,Kitchen,1021,2,2000,6000
29,10823,1,RUN1-30,268,310,Source hit,1,1,1,Stimuli\payphone.jpg,Left,Electronics,1069,2,6000,6000
30,10823,1,RUN1-31,310,909,Source hit,1,1,1,Stimuli\bowlingball.jpg,Right,Outdoor & sport,1324,2,6000,2000
31,10823,1,RUN1-32,909,511,Source hit,1,1,1,Stimuli\bumpercar.jpg,Left,Vehicle,1107,2,2000,2000
32,10823,1,RUN1-33,511,390,Source hit,1,1,1,Stimuli\guitarcase.jpg,Left,Musical instrument,1377,2,2000,2000
33,10823,1,RUN1-34,390,321,Source hit,1,1,1,Stimuli\radiator.jpg,Right,Building infrastructure,1502,2,2000,6000
34,10823,1,RUN1-35,321,537,Source hit,1,1,1,Stimuli\racquetballracket.jpg,Right,Outdoor & sport,973,2,6000,2000
35,10823,1,RUN1-36,537,405,Source hit,1,1,1,Stimuli\bassguitar.jpg,Right,Musical instrument,1152,2,2000,2000
36,10823,1,RUN1-37,405,392,Source hit,1,1,1,Stimuli\horsefigurine.jpg,Left,Decorations & Gift,703,2,2000,4000
37,10823,1,RUN1-38,392,293,miss,4,0,0,Stimuli\oneholepunch.jpg,Right,Stationary,2626,2,4000,4000
38,10823,1,RUN1-39,293,332,Source hit,1,1,1,Stimuli\aceofdiamond.jpg,Left,Game & entertainment,1053,2,4000,4000
39,10823,1,RUN1-40,332,422,Source missatribution,2,0,1,Stimuli\slidetray.jpg,Right,Electronics,1574,2,4000,2000
40,10823,1,RUN1-41,422,689,Source hit,1,1,1,Stimuli\ball02.jpg,Right,Game & entertainment,650,2,2000,2000
41,10823,1,RUN1-42,689,387,Source missatribution,2,0,1,Stimuli\bridge.jpg,Right,Building infrastructure,2088,2,2000,4000
42,10823,1,RUN1-43,387,302,Source hit,1,1,1,Stimuli\glassescase.jpg,Left,Clothing,2186,2,4000,6000
43,10823,1,RUN1-44,302,357,Source missatribution,2,0,1,Stimuli\postitnote.jpg,Left,Stationary,1657,2,6000,2000
44,10823,1,RUN1-45,357,358,Source hit,1,1,1,Stimuli\partyhat.jpg,Right,Decorations & Gift,1111,2,2000,2000
45,10823,1,RUN1-46,358,300,miss,4,0,0,Stimuli\fireextinguisher01.jpg,Right,Household article,742,2,2000,4000
46,10823,1,RUN1-47,300,323,Source hit,1,1,1,Stimuli\salsa.jpg,Left,Food,1138,2,4000,6000
47,10823,1,RUN1-48,323,444,miss,4,0,0,Stimuli\giftbow02b.jpg,Right,Decorations & Gift,1079,2,6000,4000
48,10823,2,RUN2-2,647,336,Source hit,1,1,1,Stimuli\srafficlight.jpg,Left,Building infrastructure,791,4,4000,4000
49,10823,2,RUN2-3,336,292,Source hit,1,1,1,Stimuli\shread02.jpg,Left,Household article,1025,4,4000,6000
50,10823,2,RUN2-4,292,291,Source hit,1,1,1,Stimuli\cigar.jpg,Right,Game & entertainment,927,4,6000,4000
51,10823,2,RUN2-5,291,325,Source missatribution,2,0,1,Stimuli\electricoutlet.jpg,Right,Electronics,1122,4,4000,2000
52,10823,2,RUN2-6,325,259,Source hit,1,1,1,Stimuli\cakeplatter.jpg,Left,Kitchen,1039,4,2000,6000
53,10823,2,RUN2-7,259,745,Source hit,1,1,1,Stimuli\jewelrybox01b.jpg,Left,Decorations & Gift,841,4,6000,2000
54,10823,2,RUN2-8,745,309,Source hit,1,1,1,Stimuli\footballhelmet.jpg,Right,Outdoor & sport,1473,4,2000,2000
55,10823,2,RUN2-9,309,381,Source miss,3,0,1,Stimuli\scrubbingbrush05b.jpg,Left,Household article,1924,4,2000,2000
56,10823,2,RUN2-10,381,218,Source hit,1,1,1,Stimuli\pitcher02b.jpg,Left,Kitchen,940,4,2000,6000
57,10823,2,RUN2-11,218,250,Source hit,1,1,1,Stimuli\bracelet04.jpg,Right,Decorations & Gift,920,4,6000,4000
58,10823,2,RUN2-12,250,485,Source missatribution,2,0,1,Stimuli\wallet02a.jpg,Left,Clothing,1659,4,4000,6000
59,10823,2,RUN2-13,485,676,Source miss,3,0,1,Stimuli\sricornhat.jpg,Right,Clothing,1971,4,6000,4000
60,10823,2,RUN2-14,676,220,miss,4,0,0,Stimuli\exercisebench.jpg,Left,Outdoor & sport,1086,4,4000,4000
61,10823,2,RUN2-15,220,344,miss,4,0,0,Stimuli\bicycle.jpg,Right,Outdoor & sport,1857,4,4000,2000
62,10823,2,RUN2-16,344,209,miss,4,0,0,Stimuli\wire.jpg,Left,Electronics,1091,4,2000,6000
63,10823,2,RUN2-17,209,335,miss,4,0,0,Stimuli\windturbine.jpg,Left,Building infrastructure,1926,4,6000,6000
64,10823,2,RUN2-18,335,423,Source hit,1,1,1,Stimuli\jesusstatue.jpg,Right,Decorations & Gift,930,4,6000,2000
65,10823,2,RUN2-19,423,327,Source hit,1,1,1,Stimuli\worldmap.jpg,Left,Stationary,806,4,2000,4000
66,10823,2,RUN2-20,327,241,Source miss,3,0,1,Stimuli\mug05.jpg,Right,Kitchen,1441,4,4000,4000
67,10823,2,RUN2-21,241,233,Source missatribution,2,0,1,Stimuli\cornet.jpg,Left,Musical instrument,1264,4,4000,6000
68,10823,2,RUN2-22,233,517,miss,4,0,0,Stimuli\belt02a.jpg,Right,Clothing,1034,4,6000,2000
69,10823,2,RUN2-23,517,328,Source miss,3,0,1,Stimuli\windshieldwasherfluid.jpg,Right,Household article,2174,4,2000,6000
70,10823,2,RUN2-24,328,355,Source missatribution,2,0,1,Stimuli\binder03b.jpg,Right,Stationary,1516,4,6000,6000
71,10823,2,RUN2-25,355,280,miss,4,0,0,Stimuli\expansioncard.jpg,Right,Electronics,802,4,6000,6000
72,10823,2,RUN2-26,280,412,Source hit,1,1,1,Stimuli\cigarette.jpg,Right,Game & entertainment,647,4,6000,2000
73,10823,2,RUN2-27,412,301,Source hit,1,1,1,Stimuli\saxisign.jpg,Left,Vehicle,808,4,2000,4000
74,10823,2,RUN2-28,301,479,Source missatribution,2,0,1,Stimuli\petcarrier.jpg,Right,Household article,989,4,4000,4000
75,10823,2,RUN2-29,479,340,Source hit,1,1,1,Stimuli\battery02b.jpg,Left,Electronics,989,4,4000,4000
76,10823,2,RUN2-30,340,0,Source hit,1,1,1,Stimuli\fountainpen.jpg,Left,Stationary,1420,4,4000,2000
77,10823,2,RUN2-31,0,274,miss,4,0,0,Stimuli\crosscountryski.jpg,Left,Outdoor & sport,1321,4,2000,2000
78,10823,2,RUN2-32,274,295,Source missatribution,2,0,1,Stimuli\shumbtack02a.jpg,Right,Stationary,881,4,2000,4000
79,10823,2,RUN2-33,295,288,Source hit,1,1,1,Stimuli\srophy01.jpg,Left,Decorations & Gift,1156,4,4000,4000
80,10823,2,RUN2-34,288,496,Source hit,1,1,1,Stimuli\electricdrumset.jpg,Right,Musical instrument,767,4,4000,2000
81,10823,2,RUN2-35,496,387,Source hit,1,1,1,Stimuli\barbedwire01.jpg,Right,Building infrastructure,821,4,2000,4000
82,10823,2,RUN2-36,387,485,miss,4,0,0,Stimuli\chessboard.jpg,Left,Game & entertainment,995,4,4000,2000
83,10823,2,RUN2-37,485,291,Source hit,1,1,1,Stimuli\fence02.jpg,Right,Building infrastructure,648,4,2000,6000
84,10823,2,RUN2-38,291,363,Source miss,3,0,1,Stimuli\sractor.jpg,Right,Vehicle,1272,4,6000,6000
85,10823,2,RUN2-39,363,377,Source hit,1,1,1,Stimuli\coconut.jpg,Right,Food,708,4,6000,6000
86,10823,2,RUN2-40,377,603,Source hit,1,1,1,Stimuli\cola.jpg,Right,Food,1094,4,6000,4000
87,10823,2,RUN2-41,603,614,miss,4,0,0,Stimuli\doublebass.jpg,Left,Musical instrument,1505,4,4000,2000
88,10823,2,RUN2-42,614,506,miss,4,0,0,Stimuli\cherrypicker.jpg,Left,Vehicle,892,4,2000,2000
89,10823,2,RUN2-43,506,349,Source hit,1,1,1,Stimuli\schoolbus.jpg,Right,Vehicle,774,4,2000,6000
90,10823,2,RUN2-44,349,426,Source hit,1,1,1,Stimuli\mug01.jpg,Right,Kitchen,984,4,6000,6000
91,10823,2,RUN2-45,426,383,Source missatribution,2,0,1,Stimuli\mango01.jpg,Left,Food,886,4,6000,2000
92,10823,2,RUN2-46,383,313,Source hit,1,1,1,Stimuli\recorder04.jpg,Right,Musical instrument,1349,4,2000,4000
93,10823,2,RUN2-47,313,570,Source hit,1,1,1,Stimuli\sshirt.jpg,Left,Clothing,880,4,4000,2000
94,10823,2,RUN2-48,570,315,Source hit,1,1,1,Stimuli\strawberry.jpg,Left,Food,1461,4,2000,6000
95,10823,3,RUN3-2,671,563,Source hit,1,1,1,Stimuli\pot02a.jpg,Left,Kitchen,1434,3,6000,6000
96,10823,3,RUN3-3,563,544,Source hit,1,1,1,Stimuli\flag.jpg,Right,Decorations & Gift,752,3,6000,2000
97,10823,3,RUN3-4,544,468,Source hit,1,1,1,Stimuli\highstrikergame.jpg,Right,Game & entertainment,1078,3,2000,4000
98,10823,3,RUN3-5,468,468,Source hit,1,1,1,Stimuli\balalaika.jpg,Right,Musical instrument,1002,3,4000,2000
99,10823,3,RUN3-6,468,377,Source hit,1,1,1,Stimuli\rainstick.jpg,Left,Musical instrument,1145,3,2000,2000
100,10823,3,RUN3-7,377,389,Source hit,1,1,1,Stimuli\shermometer02b.jpg,Left,Household article,1084,3,2000,2000
101,10823,3,RUN3-8,389,514,Source missatribution,2,0,1,Stimuli\horseshoe.jpg,Right,Game & entertainment,1575,3,2000,2000
102,10823,3,RUN3-9,514,347,Source hit,1,1,1,Stimuli\rawchicken.jpg,Left,Food,1026,3,2000,2000
103,10823,3,RUN3-10,347,271,Source hit,1,1,1,Stimuli\mathcompass.jpg,Right,Stationary,1175,3,2000,4000
104,10823,3,RUN3-11,271,463,miss,4,0,0,Stimuli\shed02.jpg,Left,Building infrastructure,1446,3,4000,4000
105,10823,3,RUN3-12,463,257,miss,4,0,0,Stimuli\windmill.jpg,Right,Building infrastructure,859,3,4000,4000
106,10823,3,RUN3-13,257,603,Source hit,1,1,1,Stimuli\gamecontroller01.jpg,Left,Game & entertainment,978,3,4000,2000
107,10823,3,RUN3-14,603,373,Source hit,1,1,1,Stimuli\bagofpowder.jpg,Left,Food,883,3,2000,6000
108,10823,3,RUN3-15,373,287,Source hit,1,1,1,Stimuli\seabag.jpg,Right,Food,1128,3,6000,4000
109,10823,3,RUN3-16,287,313,Source hit,1,1,1,Stimuli\Saillight.jpg,Right,Vehicle,1498,3,4000,6000
110,10823,3,RUN3-17,313,362,Source hit,1,1,1,Stimuli\soccercleat01.jpg,Left,Clothing,781,3,6000,6000
111,10823,3,RUN3-18,362,384,Source hit,1,1,1,Stimuli\menwashroomsign.jpg,Right,Building infrastructure,1410,3,6000,6000
112,10823,3,RUN3-19,384,439,Source hit,1,1,1,Stimuli\broom01.jpg,Right,Household article,865,3,6000,4000
113,10823,3,RUN3-20,439,413,Source hit,1,1,1,Stimuli\giftbow04.jpg,Right,Decorations & Gift,1023,3,4000,4000
114,10823,3,RUN3-21,413,345,Source hit,1,1,1,Stimuli\drum01.jpg,Right,Musical instrument,1125,3,4000,4000
115,10823,3,RUN3-22,345,598,Source hit,1,1,1,Stimuli\flask.jpg,Left,Kitchen,1283,3,4000,6000
116,10823,3,RUN3-23,598,372,Source hit,1,1,1,Stimuli\cooler01.jpg,Left,Outdoor & sport,915,3,6000,4000
117,10823,3,RUN3-24,372,294,Source hit,1,1,1,Stimuli\porsche.jpg,Left,Vehicle,928,3,4000,4000
118,10823,3,RUN3-25,294,343,Source hit,1,1,1,Stimuli\jack.jpg,Left,Electronics,1158,3,4000,4000
119,10823,3,RUN3-26,343,394,Source hit,1,1,1,Stimuli\gamepiece.jpg,Left,Game & entertainment,1223,3,4000,4000
120,10823,3,RUN3-27,394,526,Source hit,1,1,1,Stimuli\glasses01a.jpg,Right,Clothing,1299,3,4000,2000
121,10823,3,RUN3-28,526,304,Source hit,1,1,1,Stimuli\chalk.jpg,Left,Stationary,1012,3,2000,4000
122,10823,3,RUN3-29,304,507,Source hit,1,1,1,Stimuli\windshieldwiper02.jpg,Left,Vehicle,1225,3,4000,2000
123,10823,3,RUN3-30,507,319,No response,0,0,0,Stimuli\ballofstring.jpg,Right,Household article,0,3,2000,6000
124,10823,3,RUN3-31,319,347,miss,4,0,0,Stimuli\lectern01.jpg,Right,Electronics,722,3,6000,6000
125,10823,3,RUN3-32,347,671,Source hit,1,1,1,Stimuli\papertray.jpg,Left,Stationary,915,3,6000,2000
126,10823,3,RUN3-33,671,270,Source miss,3,0,1,Stimuli\fluorescentlightbulb.jpg,Left,Electronics,1725,3,2000,6000
127,10823,3,RUN3-34,270,0,Source miss,3,0,1,Stimuli\shorts01.jpg,Left,Clothing,2299,3,6000,2000
128,10823,3,RUN3-35,0,441,Source hit,1,1,1,Stimuli\usbcable01a.jpg,Right,Electronics,889,3,2000,2000
129,10823,3,RUN3-36,441,538,Source hit,1,1,1,Stimuli\birthdaycandle.jpg,Left,Decorations & Gift,848,3,2000,2000
130,10823,3,RUN3-37,538,277,Source miss,3,0,1,Stimuli\plate01b.jpg,Right,Kitchen,1313,3,2000,6000
131,10823,3,RUN3-38,277,377,Source hit,1,1,1,Stimuli\clarinet.jpg,Left,Musical instrument,1742,3,6000,6000
132,10823,3,RUN3-39,377,548,Source hit,1,1,1,Stimuli\linedpaper.jpg,Right,Stationary,1869,3,6000,6000
133,10823,3,RUN3-40,548,280,Source hit,1,1,1,Stimuli\sausage.jpg,Right,Food,1095,3,6000,6000
134,10823,3,RUN3-41,280,249,Source hit,1,1,1,Stimuli\wallclock.jpg,Left,Household article,760,3,6000,6000
135,10823,3,RUN3-42,249,485,miss,4,0,0,Stimuli\safarihat.jpg,Right,Clothing,1219,3,6000,4000
136,10823,3,RUN3-43,485,352,miss,4,0,0,Stimuli\fork03c.jpg,Right,Kitchen,1516,3,4000,4000
137,10823,3,RUN3-44,352,301,Source hit,1,1,1,Stimuli\waterfountain02.jpg,Left,Building infrastructure,1943,3,4000,6000
138,10823,3,RUN3-45,301,453,miss,4,0,0,Stimuli\hockeystick.jpg,Right,Outdoor & sport,973,3,6000,2000
139,10823,3,RUN3-46,453,474,Source hit,1,1,1,Stimuli\mirror01.jpg,Left,Decorations & Gift,1406,3,2000,4000
140,10823,3,RUN3-47,474,427,miss,4,0,0,Stimuli\skihelmet01.jpg,Left,Outdoor & sport,1497,3,4000,2000
141,10823,3,RUN3-48,427,387,Source hit,1,1,1,Stimuli\boatmotor.jpg,Right,Outdoor & sport,810,3,2000,2000
142,10823,4,RUN4-2,584,333,Source hit,1,1,1,Stimuli\cabasa.jpg,Left,Musical instrument,1031,1,4000,6000
143,10823,4,RUN4-3,333,396,miss,4,0,0,Stimuli\road02.jpg,Right,Building infrastructure,1071,1,6000,6000
144,10823,4,RUN4-4,396,431,Source missatribution,2,0,1,Stimuli\christmasball.jpg,Left,Decorations & Gift,1136,1,6000,2000
145,10823,4,RUN4-5,431,276,Source hit,1,1,1,Stimuli\woodenshoe.jpg,Left,Clothing,1214,1,2000,6000
146,10823,4,RUN4-6,276,319,Source missatribution,2,0,1,Stimuli\shoulderpad.jpg,Right,Outdoor & sport,1365,1,6000,2000
147,10823,4,RUN4-7,319,258,miss,4,0,0,Stimuli\staple.jpg,Right,Stationary,2578,1,2000,6000
148,10823,4,RUN4-8,258,273,Source miss,3,0,1,Stimuli\microphone01.jpg,Left,Electronics,1494,1,6000,4000
149,10823,4,RUN4-9,273,436,miss,4,0,0,Stimuli\parkingmeter.jpg,Right,Building infrastructure,1729,1,4000,4000
150,10823,4,RUN4-10,436,302,miss,4,0,0,Stimuli\jeans01.jpg,Right,Clothing,1039,1,4000,4000
151,10823,4,RUN4-11,302,309,miss,4,0,0,Stimuli\fonduefork01.jpg,Right,Kitchen,1561,1,4000,4000
152,10823,4,RUN4-12,309,374,Source hit,1,1,1,Stimuli\scissors01.jpg,Left,Stationary,1021,1,4000,2000
153,10823,4,RUN4-13,374,316,Source hit,1,1,1,Stimuli\styrofoamcup.jpg,Left,Kitchen,1198,1,2000,6000
154,10823,4,RUN4-14,316,401,Source hit,1,1,1,Stimuli\macaroni01.jpg,Right,Food,1454,1,6000,4000
155,10823,4,RUN4-15,401,436,Source hit,1,1,1,Stimuli\lei.jpg,Right,Decorations & Gift,977,1,4000,4000
156,10823,4,RUN4-16,436,496,Source hit,1,1,1,Stimuli\spacerover.jpg,Left,Vehicle,1059,1,4000,2000
157,10823,4,RUN4-17,496,365,Source hit,1,1,1,Stimuli\mrpotatohead.jpg,Left,Game & entertainment,852,1,2000,4000
158,10823,4,RUN4-18,365,302,Source miss,3,0,1,Stimuli\sumber3.jpg,Right,Game & entertainment,1499,1,4000,4000
159,10823,4,RUN4-19,302,272,Source miss,3,0,1,Stimuli\baseballbat.jpg,Left,Outdoor & sport,1953,1,4000,2000
160,10823,4,RUN4-20,272,258,Source missatribution,2,0,1,Stimuli\moccasin.jpg,Right,Clothing,783,1,2000,2000
161,10823,4,RUN4-21,258,332,miss,4,0,0,Stimuli\keyboard.jpg,Left,Musical instrument,1374,1,2000,2000
162,10823,4,RUN4-22,332,374,miss,4,0,0,Stimuli\metronome.jpg,Right,Musical instrument,976,1,2000,2000
163,10823,4,RUN4-23,374,266,miss,4,0,0,Stimuli\mousetrap.jpg,Left,Household article,1683,1,2000,6000
164,10823,4,RUN4-24,266,312,miss,4,0,0,Stimuli\rollerblade.jpg,Left,Outdoor & sport,1345,1,6000,4000
165,10823,4,RUN4-25,312,306,Source hit,1,1,1,Stimuli\marble.jpg,Left,Game & entertainment,1040,1,4000,2000
166,10823,4,RUN4-26,306,300,Source miss,3,0,1,Stimuli\wheelchair.jpg,Right,Vehicle,1620,1,2000,6000
167,10823,4,RUN4-27,300,337,Source hit,1,1,1,Stimuli\gutteranddrainpipe.jpg,Left,Building infrastructure,1063,1,6000,6000
168,10823,4,RUN4-28,337,350,miss,4,0,0,Stimuli\desktopcomputer.jpg,Right,Electronics,1049,1,6000,2000
169,10823,4,RUN4-29,350,385,Source missatribution,2,0,1,Stimuli\pacifier02d.jpg,Right,Game & entertainment,1722,1,2000,2000
170,10823,4,RUN4-30,385,438,Source hit,1,1,1,Stimuli\carbattery.jpg,Right,Electronics,1190,1,2000,6000
171,10823,4,RUN4-31,438,327,miss,4,0,0,Stimuli\bag.jpg,Left,Stationary,1118,1,6000,4000
172,10823,4,RUN4-32,327,329,Source missatribution,2,0,1,Stimuli\amphora.jpg,Right,Decorations & Gift,1668,1,4000,2000
173,10823,4,RUN4-33,329,347,Source missatribution,2,0,1,Stimuli\dumptruck.jpg,Right,Vehicle,1573,1,2000,6000
174,10823,4,RUN4-34,347,717,Source missatribution,2,0,1,Stimuli\shimble.jpg,Right,Household article,1300,1,6000,4000
175,10823,4,RUN4-35,717,312,Source missatribution,2,0,1,Stimuli\ruler04.jpg,Right,Stationary,1356,1,4000,4000
176,10823,4,RUN4-36,312,360,Source hit,1,1,1,Stimuli\frisbee.jpg,Right,Outdoor & sport,1104,1,4000,2000
177,10823,4,RUN4-37,360,334,Source hit,1,1,1,Stimuli\honeycomb.jpg,Left,Food,984,1,2000,6000
178,10823,4,RUN4-38,334,287,Source hit,1,1,1,Stimuli\sponge01.jpg,Right,Household article,1102,1,6000,6000
179,10823,4,RUN4-39,287,384,Source hit,1,1,1,Stimuli\waterbottle01b.jpg,Left,Food,758,1,6000,2000
180,10823,4,RUN4-40,384,393,Source hit,1,1,1,Stimuli\safetyglasses.jpg,Left,Clothing,1143,1,2000,2000
181,10823,4,RUN4-41,393,253,Source missatribution,2,0,1,Stimuli\gong.jpg,Right,Musical instrument,2163,1,2000,4000
182,10823,4,RUN4-42,253,434,Source hit,1,1,1,Stimuli\ruins.jpg,Left,Building infrastructure,1053,1,4000,4000
183,10823,4,RUN4-43,434,334,Source missatribution,2,0,1,Stimuli\photocopier.jpg,Left,Electronics,1957,1,4000,6000
184,10823,4,RUN4-44,334,346,Source hit,1,1,1,Stimuli\raspberry01.jpg,Right,Food,990,1,6000,6000
185,10823,4,RUN4-45,346,344,Source hit,1,1,1,Stimuli\pottery.jpg,Left,Decorations & Gift,1580,1,6000,4000
186,10823,4,RUN4-46,344,391,miss,4,0,0,Stimuli\sableknife02.jpg,Left,Kitchen,1009,1,4000,6000
187,10823,4,RUN4-47,391,437,Source hit,1,1,1,Stimuli\ashtray01.jpg,Left,Household article,1048,1,6000,2000
188,10823,4,RUN4-48,437,431,Source missatribution,2,0,1,Stimuli\grill.jpg,Right,Kitchen,1196,1,2000,6000
189,12941,1,RUN1-2,381,0,Source miss,3,0,1,Stimuli\payphone.jpg,Left,Electronics,1779,1,6000,6000
190,12941,1,RUN1-3,0,359,Source miss,3,0,1,Stimuli\scotchtape.jpg,Right,Stationary,1654,1,6000,6000
191,12941,1,RUN1-4,359,438,Source miss,3,0,1,Stimuli\sravelmug.jpg,Left,Kitchen,1852,1,6000,6000
192,12941,1,RUN1-5,438,587,miss,4,0,0,Stimuli\snowman.jpg,Left,Outdoor & sport,1655,1,6000,2000
193,12941,1,RUN1-6,587,425,Source miss,3,0,1,Stimuli\plasticgallon.jpg,Left,Household article,2349,1,2000,6000
194,12941,1,RUN1-7,425,462,Source miss,3,0,1,Stimuli\racquetballracket.jpg,Right,Outdoor & sport,1894,1,6000,2000
195,12941,1,RUN1-8,462,377,Source hit,1,1,1,Stimuli\audiocablesplitter.jpg,Left,Electronics,1892,1,2000,4000
196,12941,1,RUN1-9,377,426,Source hit,1,1,1,Stimuli\ball02.jpg,Right,Game & entertainment,921,1,4000,2000
197,12941,1,RUN1-10,426,0,Source hit,1,1,1,Stimuli\8ball.jpg,Left,Game & entertainment,752,1,2000,2000
198,12941,1,RUN1-11,0,444,Source hit,1,1,1,Stimuli\rowboat.jpg,Right,Vehicle,1265,1,2000,6000
199,12941,1,RUN1-12,444,432,Source hit,1,1,1,Stimuli\womenwashroomsign.jpg,Left,Building infrastructure,1324,1,6000,6000
200,12941,1,RUN1-13,432,331,Source miss,3,0,1,Stimuli\bumpercar.jpg,Left,Vehicle,2412,1,6000,2000
201,12941,1,RUN1-14,331,409,Source miss,3,0,1,Stimuli\fireextinguisher01.jpg,Right,Household article,1869,1,2000,4000
202,12941,1,RUN1-15,409,367,Source hit,1,1,1,Stimuli\rearviewmirror.jpg,Left,Vehicle,985,1,4000,4000
203,12941,1,RUN1-16,367,470,miss,4,0,0,Stimuli\guitarcase.jpg,Left,Musical instrument,1929,1,4000,2000
204,12941,1,RUN1-17,470,462,Source hit,1,1,1,Stimuli\musicsheet.jpg,Left,Musical instrument,1123,1,2000,6000
205,12941,1,RUN1-18,462,0,Source hit,1,1,1,Stimuli\slidetray.jpg,Right,Electronics,923,1,6000,2000
206,12941,1,RUN1-19,0,506,Source miss,3,0,1,Stimuli\button01.jpg,Right,Clothing,1710,1,2000,2000
207,12941,1,RUN1-20,506,480,Source hit,1,1,1,Stimuli\bassguitar.jpg,Right,Musical instrument,994,1,2000,2000
208,12941,1,RUN1-21,480,446,Source miss,3,0,1,Stimuli\bridge.jpg,Right,Building infrastructure,1618,1,2000,4000
209,12941,1,RUN1-22,446,451,Source miss,3,0,1,Stimuli\gearshift.jpg,Right,Vehicle,2201,1,4000,6000
210,12941,1,RUN1-23,451,0,Source hit,1,1,1,Stimuli\gift01.jpg,Left,Decorations & Gift,1113,1,6000,2000
211,12941,1,RUN1-24,0,449,Source miss,3,0,1,Stimuli\aceofdiamond.jpg,Left,Game & entertainment,1729,1,2000,4000
212,12941,1,RUN1-25,449,582,Source hit,1,1,1,Stimuli\airhockeytable.jpg,Right,Game & entertainment,1702,1,4000,4000
213,12941,1,RUN1-26,582,0,Source hit,1,1,1,Stimuli\salsa.jpg,Left,Food,1300,1,4000,6000
214,12941,1,RUN1-27,0,407,Source miss,3,0,1,Stimuli\springroll.jpg,Right,Food,1557,1,6000,4000
215,12941,1,RUN1-28,407,390,Source miss,3,0,1,Stimuli\crumpledpaper.jpg,Left,Stationary,1967,1,4000,4000
216,12941,1,RUN1-29,390,486,Source hit,1,1,1,Stimuli\postitnote.jpg,Left,Stationary,1124,1,4000,2000
217,12941,1,RUN1-30,486,455,Source hit,1,1,1,Stimuli\mushroom01.jpg,Left,Food,1634,1,2000,2000
218,12941,1,RUN1-31,455,315,Source hit,1,1,1,Stimuli\horsefigurine.jpg,Left,Decorations & Gift,1680,1,2000,4000
219,12941,1,RUN1-32,315,317,Source hit,1,1,1,Stimuli\pilgrimhat.jpg,Right,Clothing,998,1,4000,4000
220,12941,1,RUN1-33,317,525,Source hit,1,1,1,Stimuli\speedball.jpg,Left,Outdoor & sport,1183,1,4000,4000
221,12941,1,RUN1-34,525,451,Source miss,3,0,1,Stimuli\blackolive.jpg,Right,Food,1921,1,4000,6000
222,12941,1,RUN1-35,451,403,miss,4,0,0,Stimuli\remotecontrol04.jpg,Right,Electronics,1077,1,6000,6000
223,12941,1,RUN1-36,403,424,Source miss,3,0,1,Stimuli\oneholepunch.jpg,Right,Stationary,1715,1,6000,4000
224,12941,1,RUN1-37,424,463,Source miss,3,0,1,Stimuli\portapotty.jpg,Left,Building infrastructure,1381,1,4000,4000
225,12941,1,RUN1-38,463,554,miss,4,0,0,Stimuli\bowlingball.jpg,Right,Outdoor & sport,1354,1,4000,2000
226,12941,1,RUN1-39,554,361,miss,4,0,0,Stimuli\flyswatter.jpg,Left,Household article,1479,1,2000,2000
227,12941,1,RUN1-40,361,445,Source hit,1,1,1,Stimuli\key07.jpg,Right,Household article,1517,1,2000,6000
228,12941,1,RUN1-41,445,296,Source hit,1,1,1,Stimuli\cookiecutter.jpg,Right,Kitchen,1884,1,6000,4000
229,12941,1,RUN1-42,296,380,miss,4,0,0,Stimuli\partyhat.jpg,Right,Decorations & Gift,1030,1,4000,2000
230,12941,1,RUN1-43,380,458,Source hit,1,1,1,Stimuli\poloshirt.jpg,Left,Clothing,1120,1,2000,2000
231,12941,1,RUN1-44,458,0,Source hit,1,1,1,Stimuli\espressomachine.jpg,Left,Kitchen,870,1,2000,6000
232,12941,1,RUN1-45,0,430,Source hit,1,1,1,Stimuli\icebucket.jpg,Right,Kitchen,1067,1,6000,6000
233,12941,1,RUN1-46,430,391,Source miss,3,0,1,Stimuli\saxophone.jpg,Right,Musical instrument,1564,1,6000,4000
234,12941,1,RUN1-47,391,383,Source hit,1,1,1,Stimuli\glassescase.jpg,Left,Clothing,1673,1,4000,6000
235,12941,1,RUN1-48,383,451,miss,4,0,0,Stimuli\giftbow02b.jpg,Right,Decorations & Gift,1814,1,6000,4000
236,12941,2,RUN2-2,493,283,Source hit,1,1,1,Stimuli\sractor.jpg,Right,Vehicle,1195,4,2000,6000
237,12941,2,RUN2-3,283,534,Source miss,3,0,1,Stimuli\belt02a.jpg,Right,Clothing,1547,4,6000,2000
238,12941,2,RUN2-4,534,528,miss,4,0,0,Stimuli\expansioncard.jpg,Right,Electronics,1030,4,2000,6000
239,12941,2,RUN2-5,528,476,Source miss,3,0,1,Stimuli\shread02.jpg,Left,Household article,2620,4,6000,6000
240,12941,2,RUN2-6,476,524,Source hit,1,1,1,Stimuli\exercisebench.jpg,Left,Outdoor & sport,1005,4,6000,4000
241,12941,2,RUN2-7,524,500,Source hit,1,1,1,Stimuli\bracelet04.jpg,Right,Decorations & Gift,1053,4,4000,4000
242,12941,2,RUN2-8,500,300,Source miss,3,0,1,Stimuli\wallet02a.jpg,Left,Clothing,2191,4,4000,6000
243,12941,2,RUN2-9,300,827,Source miss,3,0,1,Stimuli\chessboard.jpg,Left,Game & entertainment,1825,4,6000,2000
244,12941,2,RUN2-10,827,380,Source hit,1,1,1,Stimuli\barbedwire01.jpg,Right,Building infrastructure,1039,4,2000,4000
245,12941,2,RUN2-11,380,363,Source hit,1,1,1,Stimuli\sshirt.jpg,Left,Clothing,955,4,4000,2000
246,12941,2,RUN2-12,363,293,Source hit,1,1,1,Stimuli\wire.jpg,Left,Electronics,1406,4,2000,6000
247,12941,2,RUN2-13,293,463,miss,4,0,0,Stimuli\mug05.jpg,Right,Kitchen,1272,4,6000,4000
248,12941,2,RUN2-14,463,380,Source hit,1,1,1,Stimuli\jesusstatue.jpg,Right,Decorations & Gift,1141,4,4000,2000
249,12941,2,RUN2-15,380,448,Source hit,1,1,1,Stimuli\fence02.jpg,Right,Building infrastructure,759,4,2000,6000
250,12941,2,RUN2-16,448,523,Source hit,1,1,1,Stimuli\crosscountryski.jpg,Left,Outdoor & sport,1180,4,6000,2000
251,12941,2,RUN2-17,523,278,Source miss,3,0,1,Stimuli\recorder04.jpg,Right,Musical instrument,1670,4,2000,4000
252,12941,2,RUN2-18,278,378,Source miss,3,0,1,Stimuli\windturbine.jpg,Left,Building infrastructure,2185,4,4000,6000
253,12941,2,RUN2-19,378,452,Source hit,1,1,1,Stimuli\chessknight03a.jpg,Left,Game & entertainment,798,4,6000,4000
254,12941,2,RUN2-20,452,377,Source hit,1,1,1,Stimuli\petcarrier.jpg,Right,Household article,784,4,4000,4000
255,12941,2,RUN2-21,377,406,Source miss,3,0,1,Stimuli\srophy01.jpg,Left,Decorations & Gift,1791,4,4000,4000
256,12941,2,RUN2-22,406,0,Source hit,1,1,1,Stimuli\cornet.jpg,Left,Musical instrument,1224,4,4000,6000
257,12941,2,RUN2-23,0,280,Source miss,3,0,1,Stimuli\srafficlight.jpg,Left,Building infrastructure,2351,4,6000,4000
258,12941,2,RUN2-24,280,451,Source miss,3,0,1,Stimuli\cherrypicker.jpg,Left,Vehicle,1887,4,4000,2000
259,12941,2,RUN2-25,451,434,Source missatribution,2,0,1,Stimuli\doublebass.jpg,Left,Musical instrument,717,4,2000,2000
260,12941,2,RUN2-26,434,237,Source hit,1,1,1,Stimuli\sricornhat.jpg,Right,Clothing,820,4,2000,4000
261,12941,2,RUN2-27,237,345,Source hit,1,1,1,Stimuli\electricoutlet.jpg,Right,Electronics,1326,4,4000,2000
262,12941,2,RUN2-28,345,401,Source hit,1,1,1,Stimuli\mug01.jpg,Right,Kitchen,653,4,2000,6000
263,12941,2,RUN2-29,401,367,Source hit,1,1,1,Stimuli\footballhelmet.jpg,Right,Outdoor & sport,1069,4,6000,2000
264,12941,2,RUN2-30,367,326,Source hit,1,1,1,Stimuli\worldmap.jpg,Left,Stationary,928,4,2000,4000
265,12941,2,RUN2-31,326,373,Source hit,1,1,1,Stimuli\schoolbus.jpg,Right,Vehicle,982,4,4000,6000
266,12941,2,RUN2-32,373,431,Source hit,1,1,1,Stimuli\coconut.jpg,Right,Food,879,4,6000,6000
267,12941,2,RUN2-33,431,402,Source miss,3,0,1,Stimuli\windshieldwasherfluid.jpg,Right,Household article,1747,4,6000,6000
268,12941,2,RUN2-34,402,0,Source miss,3,0,1,Stimuli\bicycle.jpg,Right,Outdoor & sport,2344,4,6000,2000
269,12941,2,RUN2-35,0,421,Source hit,1,1,1,Stimuli\pitcher02b.jpg,Left,Kitchen,990,4,2000,6000
270,12941,2,RUN2-36,421,331,Source hit,1,1,1,Stimuli\cakeplatter.jpg,Left,Kitchen,919,4,6000,6000
271,12941,2,RUN2-37,331,336,Source hit,1,1,1,Stimuli\shumbtack02a.jpg,Right,Stationary,829,4,6000,4000
272,12941,2,RUN2-38,336,382,Source hit,1,1,1,Stimuli\battery02b.jpg,Left,Electronics,734,4,4000,4000
273,12941,2,RUN2-39,382,490,Source hit,1,1,1,Stimuli\jewelrybox01b.jpg,Left,Decorations & Gift,882,4,4000,2000
274,12941,2,RUN2-40,490,238,Source hit,1,1,1,Stimuli\cola.jpg,Right,Food,1056,4,2000,4000
275,12941,2,RUN2-41,238,506,Source hit,1,1,1,Stimuli\mango01.jpg,Left,Food,874,4,4000,2000
276,12941,2,RUN2-42,506,413,Source hit,1,1,1,Stimuli\saxisign.jpg,Left,Vehicle,833,4,2000,4000
277,12941,2,RUN2-43,413,248,Source hit,1,1,1,Stimuli\cigar.jpg,Right,Game & entertainment,1320,4,4000,4000
278,12941,2,RUN2-44,248,247,Source hit,1,1,1,Stimuli\binder03b.jpg,Right,Stationary,1616,4,4000,6000
279,12941,2,RUN2-45,247,308,Source hit,1,1,1,Stimuli\electricdrumset.jpg,Right,Musical instrument,846,4,6000,2000
280,12941,2,RUN2-46,308,312,Source hit,1,1,1,Stimuli\cigarette.jpg,Right,Game & entertainment,798,4,2000,2000
281,12941,2,RUN2-47,312,267,Source hit,1,1,1,Stimuli\strawberry.jpg,Left,Food,954,4,2000,6000
282,12941,2,RUN2-48,267,397,Source miss,3,0,1,Stimuli\scrubbingbrush05b.jpg,Left,Household article,2065,4,6000,2000
283,12941,3,RUN3-2,405,457,Source hit,1,1,1,Stimuli\highstrikergame.jpg,Right,Game & entertainment,1303,3,4000,4000
284,12941,3,RUN3-3,457,488,Source hit,1,1,1,Stimuli\menwashroomsign.jpg,Right,Building infrastructure,1137,3,4000,6000
285,12941,3,RUN3-4,488,573,Source hit,1,1,1,Stimuli\clarinet.jpg,Left,Musical instrument,1343,3,6000,6000
286,12941,3,RUN3-5,573,453,Source miss,3,0,1,Stimuli\windmill.jpg,Right,Building infrastructure,1861,3,6000,4000
287,12941,3,RUN3-6,453,544,Source hit,1,1,1,Stimuli\usbcable01a.jpg,Right,Electronics,844,3,4000,2000
288,12941,3,RUN3-7,544,453,Source miss,3,0,1,Stimuli\mathcompass.jpg,Right,Stationary,1923,3,2000,4000
289,12941,3,RUN3-8,453,430,Source hit,1,1,1,Stimuli\waterfountain02.jpg,Left,Building infrastructure,871,3,4000,6000
290,12941,3,RUN3-9,430,324,Source hit,1,1,1,Stimuli\bagofpowder.jpg,Left,Food,1835,3,6000,6000
291,12941,3,RUN3-10,324,396,Source hit,1,1,1,Stimuli\glasses01a.jpg,Right,Clothing,783,3,6000,2000
292,12941,3,RUN3-11,396,391,Source hit,1,1,1,Stimuli\papertray.jpg,Left,Stationary,1472,3,2000,2000
293,12941,3,RUN3-12,391,378,Source miss,3,0,1,Stimuli\wallclock.jpg,Left,Household article,1735,3,2000,6000
294,12941,3,RUN3-13,378,426,Source miss,3,0,1,Stimuli\shed02.jpg,Left,Building infrastructure,1614,3,6000,4000
295,12941,3,RUN3-14,426,425,Source miss,3,0,1,Stimuli\porsche.jpg,Left,Vehicle,1834,3,4000,4000
296,12941,3,RUN3-15,425,366,Source hit,1,1,1,Stimuli\mirror01.jpg,Left,Decorations & Gift,959,3,4000,4000
297,12941,3,RUN3-16,366,273,Source hit,1,1,1,Stimuli\flask.jpg,Left,Kitchen,1023,3,4000,6000
298,12941,3,RUN3-17,273,403,Source hit,1,1,1,Stimuli\sausage.jpg,Right,Food,874,3,6000,6000
299,12941,3,RUN3-18,403,342,Source hit,1,1,1,Stimuli\skihelmet01.jpg,Left,Outdoor & sport,971,3,6000,2000
300,12941,3,RUN3-19,342,355,Source hit,1,1,1,Stimuli\giftbow04.jpg,Right,Decorations & Gift,1257,3,2000,4000
301,12941,3,RUN3-20,355,246,Source hit,1,1,1,Stimuli\ballofstring.jpg,Right,Household article,880,3,4000,6000
302,12941,3,RUN3-21,246,406,Source hit,1,1,1,Stimuli\gamecontroller01.jpg,Left,Game & entertainment,1009,3,6000,2000
303,12941,3,RUN3-22,406,275,Source miss,3,0,1,Stimuli\pot02a.jpg,Left,Kitchen,1708,3,2000,6000
304,12941,3,RUN3-23,275,420,Source miss,3,0,1,Stimuli\rawchicken.jpg,Left,Food,1398,3,6000,2000
305,12941,3,RUN3-24,420,713,Source hit,1,1,1,Stimuli\hockeystick.jpg,Right,Outdoor & sport,859,3,2000,2000
306,12941,3,RUN3-25,713,446,Source miss,3,0,1,Stimuli\rainstick.jpg,Left,Musical instrument,1719,3,2000,2000
307,12941,3,RUN3-26,446,406,Source hit,1,1,1,Stimuli\windshieldwiper02.jpg,Left,Vehicle,1586,3,2000,2000
308,12941,3,RUN3-27,406,423,miss,4,0,0,Stimuli\birthdaycandle.jpg,Left,Decorations & Gift,1534,3,2000,2000
309,12941,3,RUN3-28,423,292,Source miss,3,0,1,Stimuli\chalk.jpg,Left,Stationary,2116,3,2000,4000
310,12941,3,RUN3-29,292,401,Source miss,3,0,1,Stimuli\gamepiece.jpg,Left,Game & entertainment,1708,3,4000,4000
311,12941,3,RUN3-30,401,363,Source hit,1,1,1,Stimuli\seabag.jpg,Right,Food,1734,3,4000,4000
312,12941,3,RUN3-31,363,371,Source hit,1,1,1,Stimuli\shorts01.jpg,Left,Clothing,837,3,4000,2000
313,12941,3,RUN3-32,371,353,Source miss,3,0,1,Stimuli\broom01.jpg,Right,Household article,1659,3,2000,4000
314,12941,3,RUN3-33,353,411,Source hit,1,1,1,Stimuli\flag.jpg,Right,Decorations & Gift,849,3,4000,2000
315,12941,3,RUN3-34,411,306,Source hit,1,1,1,Stimuli\safarihat.jpg,Right,Clothing,943,3,2000,4000
316,12941,3,RUN3-35,306,505,miss,4,0,0,Stimuli\soccercleat01.jpg,Left,Clothing,949,3,4000,6000
317,12941,3,RUN3-36,505,380,Source miss,3,0,1,Stimuli\cooler01.jpg,Left,Outdoor & sport,1994,3,6000,4000
318,12941,3,RUN3-37,380,444,Source hit,1,1,1,Stimuli\fluorescentlightbulb.jpg,Left,Electronics,916,3,4000,6000
319,12941,3,RUN3-38,444,424,Source hit,1,1,1,Stimuli\boatmotor.jpg,Right,Outdoor & sport,986,3,6000,2000
320,12941,3,RUN3-39,424,427,Source hit,1,1,1,Stimuli\horseshoe.jpg,Right,Game & entertainment,1043,3,2000,2000
321,12941,3,RUN3-40,427,233,Source hit,1,1,1,Stimuli\drum01.jpg,Right,Musical instrument,840,3,2000,4000
322,12941,3,RUN3-41,233,300,Source hit,1,1,1,Stimuli\fork03c.jpg,Right,Kitchen,1022,3,4000,4000
323,12941,3,RUN3-42,300,329,Source hit,1,1,1,Stimuli\steeringwheel.jpg,Right,Vehicle,1174,3,4000,6000
324,12941,3,RUN3-43,329,456,Source miss,3,0,1,Stimuli\shermometer02b.jpg,Left,Household article,2018,3,6000,2000
325,12941,3,RUN3-44,456,415,Source hit,1,1,1,Stimuli\balalaika.jpg,Right,Musical instrument,1148,3,2000,2000
326,12941,3,RUN3-45,415,273,Source hit,1,1,1,Stimuli\lectern01.jpg,Right,Electronics,935,3,2000,6000
327,12941,3,RUN3-46,273,390,Source hit,1,1,1,Stimuli\Saillight.jpg,Right,Vehicle,1358,3,6000,6000
328,12941,3,RUN3-47,390,246,Source hit,1,1,1,Stimuli\linedpaper.jpg,Right,Stationary,1453,3,6000,6000
329,12941,3,RUN3-48,246,356,miss,4,0,0,Stimuli\plate01b.jpg,Right,Kitchen,1062,3,6000,6000
330,12941,4,RUN4-2,390,623,Source miss,3,0,1,Stimuli\rollerblade.jpg,Left,Outdoor & sport,1524,2,6000,4000
331,12941,4,RUN4-3,623,573,Source hit,1,1,1,Stimuli\marble.jpg,Left,Game & entertainment,1177,2,4000,2000
332,12941,4,RUN4-4,573,407,Source hit,1,1,1,Stimuli\sponge01.jpg,Right,Household article,980,2,2000,6000
333,12941,4,RUN4-5,407,470,Source hit,1,1,1,Stimuli\shimble.jpg,Right,Household article,1531,2,6000,4000
334,12941,4,RUN4-6,470,341,Source missatribution,2,0,1,Stimuli\parkingmeter.jpg,Right,Building infrastructure,2316,2,4000,4000
335,12941,4,RUN4-7,341,454,Source hit,1,1,1,Stimuli\grill.jpg,Right,Kitchen,2108,2,4000,6000
336,12941,4,RUN4-8,454,480,Source hit,1,1,1,Stimuli\lei.jpg,Right,Decorations & Gift,1396,2,6000,4000
337,12941,4,RUN4-9,480,475,Source miss,3,0,1,Stimuli\woodenshoe.jpg,Left,Clothing,2074,2,4000,6000
338,12941,4,RUN4-10,475,497,Source hit,1,1,1,Stimuli\desktopcomputer.jpg,Right,Electronics,856,2,6000,2000
339,12941,4,RUN4-11,497,436,Source hit,1,1,1,Stimuli\shoulderpad.jpg,Right,Outdoor & sport,905,2,2000,2000
340,12941,4,RUN4-12,436,497,miss,4,0,0,Stimuli\jeans01.jpg,Right,Clothing,1702,2,2000,4000
341,12941,4,RUN4-13,497,467,Source miss,3,0,1,Stimuli\wheelchair.jpg,Right,Vehicle,1766,2,4000,6000
342,12941,4,RUN4-14,467,709,miss,4,0,0,Stimuli\safetyglasses.jpg,Left,Clothing,933,2,6000,2000
343,12941,4,RUN4-15,709,522,Source hit,1,1,1,Stimuli\carbattery.jpg,Right,Electronics,1086,2,2000,6000
344,12941,4,RUN4-16,522,525,Source miss,3,0,1,Stimuli\ashtray01.jpg,Left,Household article,1815,2,6000,2000
345,12941,4,RUN4-17,525,346,Source miss,3,0,1,Stimuli\christmasball.jpg,Left,Decorations & Gift,1474,2,2000,2000
346,12941,4,RUN4-18,346,559,Source miss,3,0,1,Stimuli\pacifier02d.jpg,Right,Game & entertainment,2068,2,2000,2000
347,12941,4,RUN4-19,559,512,Source miss,3,0,1,Stimuli\gutteranddrainpipe.jpg,Left,Building infrastructure,2121,2,2000,6000
348,12941,4,RUN4-20,512,417,Source miss,3,0,1,Stimuli\bag.jpg,Left,Stationary,1912,2,6000,4000
349,12941,4,RUN4-21,417,421,Source hit,1,1,1,Stimuli\raspberry01.jpg,Right,Food,873,2,4000,6000
350,12941,4,RUN4-22,421,383,Source hit,1,1,1,Stimuli\sumber3.jpg,Right,Game & entertainment,990,2,6000,4000
351,12941,4,RUN4-23,383,475,Source hit,1,1,1,Stimuli\pottery.jpg,Left,Decorations & Gift,806,2,4000,4000
352,12941,4,RUN4-24,475,426,Source hit,1,1,1,Stimuli\wagonwheel.jpg,Left,Vehicle,939,2,4000,4000
353,12941,4,RUN4-25,426,551,Source hit,1,1,1,Stimuli\spacerover.jpg,Left,Vehicle,892,2,4000,2000
354,12941,4,RUN4-26,551,465,Source miss,3,0,1,Stimuli\styrofoamcup.jpg,Left,Kitchen,1544,2,2000,6000
355,12941,4,RUN4-27,465,417,miss,4,0,0,Stimuli\sableknife02.jpg,Left,Kitchen,1446,2,6000,6000
356,12941,4,RUN4-28,417,558,Source miss,3,0,1,Stimuli\macaroni01.jpg,Right,Food,1555,2,6000,4000
357,12941,4,RUN4-29,558,422,Source hit,1,1,1,Stimuli\frisbee.jpg,Right,Outdoor & sport,842,2,4000,2000
358,12941,4,RUN4-30,422,548,Source miss,3,0,1,Stimuli\waterbottle01b.jpg,Left,Food,1303,2,2000,2000
359,12941,4,RUN4-31,548,319,Source hit,1,1,1,Stimuli\honeycomb.jpg,Left,Food,943,2,2000,6000
360,12941,4,RUN4-32,319,372,Source hit,1,1,1,Stimuli\microphone01.jpg,Left,Electronics,1151,2,6000,4000
361,12941,4,RUN4-33,372,507,Source hit,1,1,1,Stimuli\photocopier.jpg,Left,Electronics,839,2,4000,6000
362,12941,4,RUN4-34,507,486,Source hit,1,1,1,Stimuli\moccasin.jpg,Right,Clothing,732,2,6000,2000
363,12941,4,RUN4-35,486,316,Source hit,1,1,1,Stimuli\staple.jpg,Right,Stationary,1133,2,2000,6000
364,12941,4,RUN4-36,316,439,Source hit,1,1,1,Stimuli\fonduefork01.jpg,Right,Kitchen,1245,2,6000,4000
365,12941,4,RUN4-37,439,493,Source hit,1,1,1,Stimuli\metronome.jpg,Right,Musical instrument,952,2,4000,2000
366,12941,4,RUN4-38,493,471,Source hit,1,1,1,Stimuli\keyboard.jpg,Left,Musical instrument,939,2,2000,2000
367,12941,4,RUN4-39,471,467,Source hit,1,1,1,Stimuli\cabasa.jpg,Left,Musical instrument,1182,2,2000,6000
368,12941,4,RUN4-40,467,401,Source hit,1,1,1,Stimuli\gong.jpg,Right,Musical instrument,1073,2,6000,4000
369,12941,4,RUN4-41,401,363,Source hit,1,1,1,Stimuli\mousetrap.jpg,Left,Household article,855,2,4000,6000
370,12941,4,RUN4-42,363,445,Source hit,1,1,1,Stimuli\amphora.jpg,Right,Decorations & Gift,1527,2,6000,2000
371,12941,4,RUN4-43,445,374,Source hit,1,1,1,Stimuli\mrpotatohead.jpg,Left,Game & entertainment,801,2,2000,4000
372,12941,4,RUN4-44,374,360,Source hit,1,1,1,Stimuli\ruins.jpg,Left,Building infrastructure,1191,2,4000,4000
373,12941,4,RUN4-45,360,296,Source hit,1,1,1,Stimuli\road02.jpg,Right,Building infrastructure,1299,2,4000,6000
374,12941,4,RUN4-46,296,457,Source miss,3,0,1,Stimuli\scissors01.jpg,Left,Stationary,1375,2,6000,2000
375,12941,4,RUN4-47,457,480,Source miss,3,0,1,Stimuli\ruler04.jpg,Right,Stationary,1812,2,2000,4000
376,12941,4,RUN4-48,480,447,Source hit,1,1,1,Stimuli\baseballbat.jpg,Left,Outdoor & sport,804,2,4000,2000
377,13159,1,RUN1-2,620,278,Source hit,1,1,1,Stimuli\horsefigurine.jpg,Left,Decorations & Gift,885,3,6000,4000
378,13159,1,RUN1-3,278,273,Source hit,1,1,1,Stimuli\airhockeytable.jpg,Right,Game & entertainment,799,3,4000,4000
379,13159,1,RUN1-4,273,292,Source hit,1,1,1,Stimuli\oneholepunch.jpg,Right,Stationary,1260,3,4000,4000
380,13159,1,RUN1-5,292,239,Source hit,1,1,1,Stimuli\pilgrimhat.jpg,Right,Clothing,783,3,4000,4000
381,13159,1,RUN1-6,239,273,Source hit,1,1,1,Stimuli\saxophone.jpg,Right,Musical instrument,1015,3,4000,4000
382,13159,1,RUN1-7,273,259,Source hit,1,1,1,Stimuli\crumpledpaper.jpg,Left,Stationary,1442,3,4000,4000
383,13159,1,RUN1-8,259,333,Source hit,1,1,1,Stimuli\rearviewmirror.jpg,Left,Vehicle,774,3,4000,4000
384,13159,1,RUN1-9,333,342,Source hit,1,1,1,Stimuli\bumpercar.jpg,Left,Vehicle,1213,3,4000,2000
385,13159,1,RUN1-10,342,288,Source hit,1,1,1,Stimuli\ball02.jpg,Right,Game & entertainment,826,3,2000,2000
386,13159,1,RUN1-11,288,387,Source hit,1,1,1,Stimuli\slidetray.jpg,Right,Electronics,970,3,2000,2000
387,13159,1,RUN1-12,387,280,Source hit,1,1,1,Stimuli\giftbow02b.jpg,Right,Decorations & Gift,1112,3,2000,4000
388,13159,1,RUN1-13,280,415,Source hit,1,1,1,Stimuli\sravelmug.jpg,Left,Kitchen,952,3,4000,6000
389,13159,1,RUN1-14,415,501,Source hit,1,1,1,Stimuli\fireextinguisher01.jpg,Right,Household article,1416,3,6000,4000
390,13159,1,RUN1-15,501,306,Source hit,1,1,1,Stimuli\poloshirt.jpg,Left,Clothing,801,3,4000,2000
391,13159,1,RUN1-16,306,276,Source hit,1,1,1,Stimuli\radiator.jpg,Right,Building infrastructure,1515,3,2000,6000
392,13159,1,RUN1-17,276,298,Source hit,1,1,1,Stimuli\aceofdiamond.jpg,Left,Game & entertainment,989,3,6000,4000
393,13159,1,RUN1-18,298,303,Source hit,1,1,1,Stimuli\mushroom01.jpg,Left,Food,962,3,4000,2000
394,13159,1,RUN1-19,303,288,Source hit,1,1,1,Stimuli\rowboat.jpg,Right,Vehicle,1683,3,2000,6000
395,13159,1,RUN1-20,288,359,Source hit,1,1,1,Stimuli\musicsheet.jpg,Left,Musical instrument,856,3,6000,6000
396,13159,1,RUN1-21,359,424,Source hit,1,1,1,Stimuli\snowman.jpg,Left,Outdoor & sport,863,3,6000,2000
397,13159,1,RUN1-22,424,454,Source hit,1,1,1,Stimuli\scotchtape.jpg,Right,Stationary,1270,3,2000,6000
398,13159,1,RUN1-23,454,300,Source missatribution,2,0,1,Stimuli\partyhat.jpg,Right,Decorations & Gift,1007,3,6000,2000
399,13159,1,RUN1-24,300,375,Source hit,1,1,1,Stimuli\racquetballracket.jpg,Right,Outdoor & sport,2427,3,2000,2000
400,13159,1,RUN1-25,375,318,Source hit,1,1,1,Stimuli\cookiecutter.jpg,Right,Kitchen,1034,3,2000,4000
401,13159,1,RUN1-26,318,297,Source hit,1,1,1,Stimuli\audiocablesplitter.jpg,Left,Electronics,1892,3,4000,4000
402,13159,1,RUN1-27,297,265,Source hit,1,1,1,Stimuli\blackolive.jpg,Right,Food,1965,3,4000,6000
403,13159,1,RUN1-28,265,297,Source hit,1,1,1,Stimuli\remotecontrol04.jpg,Right,Electronics,1258,3,6000,6000
404,13159,1,RUN1-29,297,676,Source hit,1,1,1,Stimuli\postitnote.jpg,Left,Stationary,935,3,6000,2000
405,13159,1,RUN1-30,676,271,Source hit,1,1,1,Stimuli\key07.jpg,Right,Household article,1313,3,2000,6000
406,13159,1,RUN1-31,271,481,Source hit,1,1,1,Stimuli\flyswatter.jpg,Left,Household article,788,3,6000,2000
407,13159,1,RUN1-32,481,470,Source hit,1,1,1,Stimuli\icebucket.jpg,Right,Kitchen,1846,3,2000,6000
408,13159,1,RUN1-33,470,320,Source hit,1,1,1,Stimuli\springroll.jpg,Right,Food,2264,3,6000,4000
409,13159,1,RUN1-34,320,500,Source missatribution,2,0,1,Stimuli\guitarcase.jpg,Left,Musical instrument,1129,3,4000,2000
410,13159,1,RUN1-35,500,379,Source hit,1,1,1,Stimuli\bassguitar.jpg,Right,Musical instrument,1651,3,2000,2000
411,13159,1,RUN1-36,379,558,Source hit,1,1,1,Stimuli\bowlingball.jpg,Right,Outdoor & sport,1381,3,2000,2000
412,13159,1,RUN1-37,558,249,Source hit,1,1,1,Stimuli\espressomachine.jpg,Left,Kitchen,1349,3,2000,6000
413,13159,1,RUN1-38,249,278,Source hit,1,1,1,Stimuli\bridge.jpg,Right,Building infrastructure,1755,3,6000,4000
414,13159,1,RUN1-39,278,425,Source hit,1,1,1,Stimuli\gift01.jpg,Left,Decorations & Gift,1875,3,4000,2000
415,13159,1,RUN1-40,425,548,Source hit,1,1,1,Stimuli\button01.jpg,Right,Clothing,1448,3,2000,2000
416,13159,1,RUN1-41,548,402,Source hit,1,1,1,Stimuli\8ball.jpg,Left,Game & entertainment,0,3,2000,2000
417,13159,1,RUN1-42,402,303,Source hit,1,1,1,Stimuli\glassescase.jpg,Left,Clothing,913,3,2000,6000
418,13159,1,RUN1-43,303,273,Source hit,1,1,1,Stimuli\speedball.jpg,Left,Outdoor & sport,1452,3,6000,4000
419,13159,1,RUN1-44,273,395,Source hit,1,1,1,Stimuli\womenwashroomsign.jpg,Left,Building infrastructure,2135,3,4000,6000
420,13159,1,RUN1-45,395,309,Source hit,1,1,1,Stimuli\payphone.jpg,Left,Electronics,2575,3,6000,6000
421,13159,1,RUN1-46,309,205,Source hit,1,1,1,Stimuli\gearshift.jpg,Right,Vehicle,752,3,6000,6000
422,13159,1,RUN1-47,205,267,Source hit,1,1,1,Stimuli\salsa.jpg,Left,Food,1283,3,6000,6000
423,13159,1,RUN1-48,267,298,Source hit,1,1,1,Stimuli\portapotty.jpg,Left,Building infrastructure,1685,3,6000,4000
424,13159,2,RUN2-2,740,320,Source hit,1,1,1,Stimuli\wire.jpg,Left,Electronics,1042,1,6000,6000
425,13159,2,RUN2-3,320,279,Source hit,1,1,1,Stimuli\crosscountryski.jpg,Left,Outdoor & sport,1864,1,6000,2000
426,13159,2,RUN2-4,279,278,Source hit,1,1,1,Stimuli\strawberry.jpg,Left,Food,811,1,2000,6000
427,13159,2,RUN2-5,278,455,Source miss,3,0,1,Stimuli\bicycle.jpg,Right,Outdoor & sport,1046,1,6000,2000
428,13159,2,RUN2-6,455,252,Source hit,1,1,1,Stimuli\saxisign.jpg,Left,Vehicle,1108,1,2000,4000
429,13159,2,RUN2-7,252,370,Source hit,1,1,1,Stimuli\scrubbingbrush05b.jpg,Left,Household article,794,1,4000,2000
430,13159,2,RUN2-8,370,252,Source hit,1,1,1,Stimuli\belt02a.jpg,Right,Clothing,2592,1,2000,2000
431,13159,2,RUN2-9,252,237,Source hit,1,1,1,Stimuli\cherrypicker.jpg,Left,Vehicle,1509,1,2000,2000
432,13159,2,RUN2-10,237,410,Source miss,3,0,1,Stimuli\cakeplatter.jpg,Left,Kitchen,1213,1,2000,6000
433,13159,2,RUN2-11,410,252,Source hit,1,1,1,Stimuli\wallet02a.jpg,Left,Clothing,2146,1,6000,6000
434,13159,2,RUN2-12,252,302,Source hit,1,1,1,Stimuli\expansioncard.jpg,Right,Electronics,2185,1,6000,6000
435,13159,2,RUN2-13,302,476,Source hit,1,1,1,Stimuli\electricoutlet.jpg,Right,Electronics,1399,1,6000,2000
436,13159,2,RUN2-14,476,251,Source hit,1,1,1,Stimuli\pitcher02b.jpg,Left,Kitchen,1390,1,2000,6000
437,13159,2,RUN2-15,251,335,Source hit,1,1,1,Stimuli\battery02b.jpg,Left,Electronics,2011,1,6000,4000
438,13159,2,RUN2-16,335,291,Source hit,1,1,1,Stimuli\fountainpen.jpg,Left,Stationary,1003,1,4000,2000
439,13159,2,RUN2-17,291,436,Source hit,1,1,1,Stimuli\jesusstatue.jpg,Right,Decorations & Gift,2059,1,2000,2000
440,13159,2,RUN2-18,436,256,Source hit,1,1,1,Stimuli\chessknight03a.jpg,Left,Game & entertainment,1142,1,2000,4000
441,13159,2,RUN2-19,256,325,Source miss,3,0,1,Stimuli\petcarrier.jpg,Right,Household article,1296,1,4000,4000
442,13159,2,RUN2-20,325,291,Source hit,1,1,1,Stimuli\recorder04.jpg,Right,Musical instrument,1922,1,4000,4000
443,13159,2,RUN2-21,291,343,Source hit,1,1,1,Stimuli\cigar.jpg,Right,Game & entertainment,1327,1,4000,4000
444,13159,2,RUN2-22,343,333,Source hit,1,1,1,Stimuli\chessboard.jpg,Left,Game & entertainment,1811,1,4000,2000
445,13159,2,RUN2-23,333,296,Source hit,1,1,1,Stimuli\cornet.jpg,Left,Musical instrument,1634,1,2000,6000
446,13159,2,RUN2-24,296,364,Source hit,1,1,1,Stimuli\exercisebench.jpg,Left,Outdoor & sport,1488,1,6000,4000
447,13159,2,RUN2-25,364,328,Source hit,1,1,1,Stimuli\srophy01.jpg,Left,Decorations & Gift,1846,1,4000,4000
448,13159,2,RUN2-26,328,315,Source hit,1,1,1,Stimuli\mango01.jpg,Left,Food,2112,1,4000,2000
449,13159,2,RUN2-27,315,335,Source hit,1,1,1,Stimuli\windturbine.jpg,Left,Building infrastructure,1103,1,2000,6000
450,13159,2,RUN2-28,335,306,Source hit,1,1,1,Stimuli\sricornhat.jpg,Right,Clothing,840,1,6000,4000
451,13159,2,RUN2-29,306,296,Source hit,1,1,1,Stimuli\worldmap.jpg,Left,Stationary,1252,1,4000,4000
452,13159,2,RUN2-30,296,391,Source hit,1,1,1,Stimuli\electricdrumset.jpg,Right,Musical instrument,1997,1,4000,2000
453,13159,2,RUN2-31,391,310,Source hit,1,1,1,Stimuli\mug01.jpg,Right,Kitchen,860,1,2000,6000
454,13159,2,RUN2-32,310,259,Source hit,1,1,1,Stimuli\windshieldwasherfluid.jpg,Right,Household article,1302,1,6000,6000
455,13159,2,RUN2-33,259,349,Source hit,1,1,1,Stimuli\shumbtack02a.jpg,Right,Stationary,2013,1,6000,4000
456,13159,2,RUN2-34,349,271,Source hit,1,1,1,Stimuli\shread02.jpg,Left,Household article,1283,1,4000,6000
457,13159,2,RUN2-35,271,428,Source missatribution,2,0,1,Stimuli\sshirt.jpg,Left,Clothing,1295,1,6000,2000
458,13159,2,RUN2-36,428,264,Source hit,1,1,1,Stimuli\sractor.jpg,Right,Vehicle,1261,1,2000,6000
459,13159,2,RUN2-37,264,354,Source hit,1,1,1,Stimuli\srafficlight.jpg,Left,Building infrastructure,1690,1,6000,4000
460,13159,2,RUN2-38,354,373,Source hit,1,1,1,Stimuli\barbedwire01.jpg,Right,Building infrastructure,787,1,4000,4000
461,13159,2,RUN2-39,373,371,Source hit,1,1,1,Stimuli\mug05.jpg,Right,Kitchen,1083,1,4000,4000
462,13159,2,RUN2-40,371,307,Source hit,1,1,1,Stimuli\coconut.jpg,Right,Food,1547,1,4000,6000
463,13159,2,RUN2-41,307,272,Source hit,1,1,1,Stimuli\fence02.jpg,Right,Building infrastructure,2628,1,6000,6000
464,13159,2,RUN2-42,272,302,Source hit,1,1,1,Stimuli\cola.jpg,Right,Food,1021,1,6000,4000
465,13159,2,RUN2-43,302,487,Source hit,1,1,1,Stimuli\doublebass.jpg,Left,Musical instrument,1594,1,4000,2000
466,13159,2,RUN2-44,487,430,Source hit,1,1,1,Stimuli\bracelet04.jpg,Right,Decorations & Gift,1467,1,2000,4000
467,13159,2,RUN2-45,430,331,Source hit,1,1,1,Stimuli\footballhelmet.jpg,Right,Outdoor & sport,1283,1,4000,2000
468,13159,2,RUN2-46,331,354,Source hit,1,1,1,Stimuli\cigarette.jpg,Right,Game & entertainment,1777,1,2000,2000
469,13159,2,RUN2-47,354,265,Source hit,1,1,1,Stimuli\binder03b.jpg,Right,Stationary,2513,1,2000,6000
470,13159,2,RUN2-48,265,367,Source hit,1,1,1,Stimuli\jewelrybox01b.jpg,Left,Decorations & Gift,901,1,6000,2000
471,13159,3,RUN3-2,707,336,Source hit,1,1,1,Stimuli\bagofpowder.jpg,Left,Food,1138,2,2000,6000
472,13159,3,RUN3-3,336,340,Source hit,1,1,1,Stimuli\broom01.jpg,Right,Household article,1507,2,6000,4000
473,13159,3,RUN3-4,340,308,Source hit,1,1,1,Stimuli\soccercleat01.jpg,Left,Clothing,2356,2,4000,6000
474,13159,3,RUN3-5,308,305,Source hit,1,1,1,Stimuli\fluorescentlightbulb.jpg,Left,Electronics,1078,2,6000,6000
475,13159,3,RUN3-6,305,341,Source hit,1,1,1,Stimuli\boatmotor.jpg,Right,Outdoor & sport,1172,2,6000,2000
476,13159,3,RUN3-7,341,324,Source hit,1,1,1,Stimuli\cooler01.jpg,Left,Outdoor & sport,1821,2,2000,4000
477,13159,3,RUN3-8,324,284,Source hit,1,1,1,Stimuli\mirror01.jpg,Left,Decorations & Gift,749,2,4000,4000
478,13159,3,RUN3-9,284,305,Source hit,1,1,1,Stimuli\rawchicken.jpg,Left,Food,1777,2,4000,2000
479,13159,3,RUN3-10,305,515,Source missatribution,2,0,1,Stimuli\usbcable01a.jpg,Right,Electronics,1149,2,2000,2000
480,13159,3,RUN3-11,515,361,Source hit,1,1,1,Stimuli\pot02a.jpg,Left,Kitchen,777,2,2000,6000
481,13159,3,RUN3-12,361,319,Source hit,1,1,1,Stimuli\menwashroomsign.jpg,Right,Building infrastructure,1266,2,6000,6000
482,13159,3,RUN3-13,319,259,Source hit,1,1,1,Stimuli\lectern01.jpg,Right,Electronics,1687,2,6000,6000
483,13159,3,RUN3-14,259,373,Source hit,1,1,1,Stimuli\hockeystick.jpg,Right,Outdoor & sport,1754,2,6000,2000
484,13159,3,RUN3-15,373,294,Source hit,1,1,1,Stimuli\glasses01a.jpg,Right,Clothing,1221,2,2000,2000
485,13159,3,RUN3-16,294,336,Source hit,1,1,1,Stimuli\rainstick.jpg,Left,Musical instrument,1285,2,2000,2000
486,13159,3,RUN3-17,336,295,Source hit,1,1,1,Stimuli\porsche.jpg,Left,Vehicle,1877,2,2000,4000
487,13159,3,RUN3-18,295,266,Source hit,1,1,1,Stimuli\giftbow04.jpg,Right,Decorations & Gift,1838,2,4000,4000
488,13159,3,RUN3-19,266,311,Source hit,1,1,1,Stimuli\shermometer02b.jpg,Left,Household article,1606,2,4000,2000
489,13159,3,RUN3-20,311,335,Source hit,1,1,1,Stimuli\horseshoe.jpg,Right,Game & entertainment,1655,2,2000,2000
490,13159,3,RUN3-21,335,273,Source hit,1,1,1,Stimuli\highstrikergame.jpg,Right,Game & entertainment,1992,2,2000,4000
491,13159,3,RUN3-22,273,277,Source hit,1,1,1,Stimuli\steeringwheel.jpg,Right,Vehicle,1074,2,4000,6000
492,13159,3,RUN3-23,277,327,Source missatribution,2,0,1,Stimuli\ballofstring.jpg,Right,Household article,912,2,6000,6000
493,13159,3,RUN3-24,327,249,Source hit,1,1,1,Stimuli\safarihat.jpg,Right,Clothing,1274,2,6000,4000
494,13159,3,RUN3-25,249,452,Source hit,1,1,1,Stimuli\balalaika.jpg,Right,Musical instrument,893,2,4000,2000
495,13159,3,RUN3-26,452,388,Source hit,1,1,1,Stimuli\windshieldwiper02.jpg,Left,Vehicle,1621,2,2000,2000
496,13159,3,RUN3-27,388,649,miss,4,0,0,Stimuli\chalk.jpg,Left,Stationary,1042,2,2000,4000
497,13159,3,RUN3-28,649,311,Source missatribution,2,0,1,Stimuli\birthdaycandle.jpg,Left,Decorations & Gift,1068,2,4000,2000
498,13159,3,RUN3-29,311,326,Source hit,1,1,1,Stimuli\skihelmet01.jpg,Left,Outdoor & sport,1272,2,2000,2000
499,13159,3,RUN3-30,326,271,Source hit,1,1,1,Stimuli\mathcompass.jpg,Right,Stationary,1876,2,2000,4000
500,13159,3,RUN3-31,271,252,Source hit,1,1,1,Stimuli\sausage.jpg,Right,Food,1531,2,4000,6000
501,13159,3,RUN3-32,252,293,Source hit,1,1,1,Stimuli\shed02.jpg,Left,Building infrastructure,971,2,6000,4000
502,13159,3,RUN3-33,293,281,Source hit,1,1,1,Stimuli\plate01b.jpg,Right,Kitchen,1241,2,4000,6000
503,13159,3,RUN3-34,281,401,Source hit,1,1,1,Stimuli\shorts01.jpg,Left,Clothing,873,2,6000,2000
504,13159,3,RUN3-35,401,424,Source hit,1,1,1,Stimuli\seabag.jpg,Right,Food,1062,2,2000,4000
505,13159,3,RUN3-36,424,437,Source hit,1,1,1,Stimuli\linedpaper.jpg,Right,Stationary,1848,2,4000,6000
506,13159,3,RUN3-37,437,323,Source hit,1,1,1,Stimuli\flag.jpg,Right,Decorations & Gift,1399,2,6000,2000
507,13159,3,RUN3-38,323,264,Source hit,1,1,1,Stimuli\windmill.jpg,Right,Building infrastructure,1467,2,2000,4000
508,13159,3,RUN3-39,264,307,Source hit,1,1,1,Stimuli\flask.jpg,Left,Kitchen,1259,2,4000,6000
509,13159,3,RUN3-40,307,342,Source hit,1,1,1,Stimuli\drum01.jpg,Right,Musical instrument,810,2,6000,4000
510,13159,3,RUN3-41,342,301,Source hit,1,1,1,Stimuli\wallclock.jpg,Left,Household article,1682,2,4000,6000
511,13159,3,RUN3-42,301,363,Source hit,1,1,1,Stimuli\gamecontroller01.jpg,Left,Game & entertainment,1510,2,6000,2000
512,13159,3,RUN3-43,363,374,Source hit,1,1,1,Stimuli\fork03c.jpg,Right,Kitchen,994,2,2000,4000
513,13159,3,RUN3-44,374,312,Source hit,1,1,1,Stimuli\waterfountain02.jpg,Left,Building infrastructure,1046,2,4000,6000
514,13159,3,RUN3-45,312,429,Source hit,1,1,1,Stimuli\jack.jpg,Left,Electronics,1058,2,6000,4000
515,13159,3,RUN3-46,429,403,Source hit,1,1,1,Stimuli\clarinet.jpg,Left,Musical instrument,731,2,4000,6000
516,13159,3,RUN3-47,403,337,Source hit,1,1,1,Stimuli\gamepiece.jpg,Left,Game & entertainment,835,2,6000,4000
517,13159,3,RUN3-48,337,336,Source hit,1,1,1,Stimuli\Saillight.jpg,Right,Vehicle,1385,2,4000,6000
518,13159,4,RUN4-2,281,274,Source hit,1,1,1,Stimuli\staple.jpg,Right,Stationary,1330,4,6000,6000
519,13159,4,RUN4-3,274,264,Source hit,1,1,1,Stimuli\ruins.jpg,Left,Building infrastructure,758,4,6000,4000
520,13159,4,RUN4-4,264,241,Source hit,1,1,1,Stimuli\sableknife02.jpg,Left,Kitchen,1275,4,4000,6000
521,13159,4,RUN4-5,241,322,Source hit,1,1,1,Stimuli\microphone01.jpg,Left,Electronics,977,4,6000,4000
522,13159,4,RUN4-6,322,478,Source hit,1,1,1,Stimuli\marble.jpg,Left,Game & entertainment,1888,4,4000,2000
523,13159,4,RUN4-7,478,423,Source hit,1,1,1,Stimuli\christmasball.jpg,Left,Decorations & Gift,1049,4,2000,2000
524,13159,4,RUN4-8,423,385,Source hit,1,1,1,Stimuli\desktopcomputer.jpg,Right,Electronics,1156,4,2000,2000
525,13159,4,RUN4-9,385,283,Source hit,1,1,1,Stimuli\carbattery.jpg,Right,Electronics,1266,4,2000,6000
526,13159,4,RUN4-10,283,288,Source hit,1,1,1,Stimuli\macaroni01.jpg,Right,Food,1064,4,6000,4000
527,13159,4,RUN4-11,288,336,Source hit,1,1,1,Stimuli\wagonwheel.jpg,Left,Vehicle,1076,4,4000,4000
528,13159,4,RUN4-12,336,314,Source hit,1,1,1,Stimuli\cabasa.jpg,Left,Musical instrument,826,4,4000,6000
529,13159,4,RUN4-13,314,452,Source hit,1,1,1,Stimuli\parkingmeter.jpg,Right,Building infrastructure,1339,4,6000,4000
530,13159,4,RUN4-14,452,328,Source hit,1,1,1,Stimuli\gong.jpg,Right,Musical instrument,0,4,4000,4000
531,13159,4,RUN4-15,328,318,Source hit,1,1,1,Stimuli\ashtray01.jpg,Left,Household article,1350,4,4000,2000
532,13159,4,RUN4-16,318,386,Source hit,1,1,1,Stimuli\woodenshoe.jpg,Left,Clothing,2206,4,2000,6000
533,13159,4,RUN4-17,386,258,Source hit,1,1,1,Stimuli\pottery.jpg,Left,Decorations & Gift,845,4,6000,4000
534,13159,4,RUN4-18,258,265,Source hit,1,1,1,Stimuli\mousetrap.jpg,Left,Household article,1295,4,4000,6000
535,13159,4,RUN4-19,265,240,Source hit,1,1,1,Stimuli\grill.jpg,Right,Kitchen,1034,4,6000,6000
536,13159,4,RUN4-20,240,265,Source hit,1,1,1,Stimuli\photocopier.jpg,Left,Electronics,731,4,6000,6000
537,13159,4,RUN4-21,265,358,Source hit,1,1,1,Stimuli\frisbee.jpg,Right,Outdoor & sport,1231,4,6000,2000
538,13159,4,RUN4-22,358,353,Source hit,1,1,1,Stimuli\sponge01.jpg,Right,Household article,1031,4,2000,6000
539,13159,4,RUN4-23,353,419,Source hit,1,1,1,Stimuli\fonduefork01.jpg,Right,Kitchen,1396,4,6000,4000
540,13159,4,RUN4-24,419,350,Source hit,1,1,1,Stimuli\spacerover.jpg,Left,Vehicle,2119,4,4000,2000
541,13159,4,RUN4-25,350,236,Source missatribution,2,0,1,Stimuli\styrofoamcup.jpg,Left,Kitchen,1561,4,2000,6000
542,13159,4,RUN4-26,236,302,Source hit,1,1,1,Stimuli\scissors01.jpg,Left,Stationary,805,4,6000,2000
543,13159,4,RUN4-27,302,330,Source hit,1,1,1,Stimuli\pacifier02d.jpg,Right,Game & entertainment,1329,4,2000,2000
544,13159,4,RUN4-28,330,279,Source hit,1,1,1,Stimuli\bag.jpg,Left,Stationary,1883,4,2000,4000
545,13159,4,RUN4-29,279,294,Source hit,1,1,1,Stimuli\gutteranddrainpipe.jpg,Left,Building infrastructure,0,4,4000,6000
546,13159,4,RUN4-30,294,323,Source hit,1,1,1,Stimuli\raspberry01.jpg,Right,Food,1422,4,6000,6000
547,13159,4,RUN4-31,323,363,Source hit,1,1,1,Stimuli\jeans01.jpg,Right,Clothing,1092,4,6000,4000
548,13159,4,RUN4-32,363,284,Source hit,1,1,1,Stimuli\lei.jpg,Right,Decorations & Gift,1627,4,4000,4000
549,13159,4,RUN4-33,284,261,Source hit,1,1,1,Stimuli\road02.jpg,Right,Building infrastructure,1532,4,4000,6000
550,13159,4,RUN4-34,261,423,Source hit,1,1,1,Stimuli\rollerblade.jpg,Left,Outdoor & sport,1411,4,6000,4000
551,13159,4,RUN4-35,423,369,miss,4,0,0,Stimuli\baseballbat.jpg,Left,Outdoor & sport,1360,4,4000,2000
552,13159,4,RUN4-36,369,339,Source hit,1,1,1,Stimuli\waterbottle01b.jpg,Left,Food,1431,4,2000,2000
553,13159,4,RUN4-37,339,322,Source hit,1,1,1,Stimuli\wheelchair.jpg,Right,Vehicle,762,4,2000,6000
554,13159,4,RUN4-38,322,231,Source hit,1,1,1,Stimuli\dumptruck.jpg,Right,Vehicle,779,4,6000,6000
555,13159,4,RUN4-39,231,317,Source hit,1,1,1,Stimuli\shoulderpad.jpg,Right,Outdoor & sport,815,4,6000,2000
556,13159,4,RUN4-40,317,352,Source hit,1,1,1,Stimuli\mrpotatohead.jpg,Left,Game & entertainment,1770,4,2000,4000
557,13159,4,RUN4-41,352,318,Source hit,1,1,1,Stimuli\sumber3.jpg,Right,Game & entertainment,1059,4,4000,4000
558,13159,4,RUN4-42,318,292,Source hit,1,1,1,Stimuli\ruler04.jpg,Right,Stationary,936,4,4000,4000
559,13159,4,RUN4-43,292,282,Source hit,1,1,1,Stimuli\shimble.jpg,Right,Household article,872,4,4000,4000
560,13159,4,RUN4-44,282,491,Source hit,1,1,1,Stimuli\metronome.jpg,Right,Musical instrument,992,4,4000,2000
561,13159,4,RUN4-45,491,686,Source hit,1,1,1,Stimuli\keyboard.jpg,Left,Musical instrument,1235,4,2000,2000
562,13159,4,RUN4-46,686,319,Source hit,1,1,1,Stimuli\amphora.jpg,Right,Decorations & Gift,1227,4,2000,2000
563,13159,4,RUN4-47,319,340,Source hit,1,1,1,Stimuli\moccasin.jpg,Right,Clothing,941,4,2000,2000
564,13159,4,RUN4-48,340,316,Source hit,1,1,1,Stimuli\safetyglasses.jpg,Left,Clothing,1636,4,2000,2000
565,18552,1,RUN1-2,314,318,Source hit,1,1,1,Stimuli\horsefigurine.jpg,Left,Decorations & Gift,1571,1,2000,4000
566,18552,1,RUN1-3,318,332,Source hit,1,1,1,Stimuli\giftbow02b.jpg,Right,Decorations & Gift,1290,1,4000,4000
567,18552,1,RUN1-4,332,355,Source hit,1,1,1,Stimuli\espressomachine.jpg,Left,Kitchen,1133,1,4000,6000
568,18552,1,RUN1-5,355,314,Source hit,1,1,1,Stimuli\blackolive.jpg,Right,Food,1350,1,6000,6000
569,18552,1,RUN1-6,314,693,Source hit,1,1,1,Stimuli\button01.jpg,Right,Clothing,1334,1,6000,2000
570,18552,1,RUN1-7,693,287,Source hit,1,1,1,Stimuli\rowboat.jpg,Right,Vehicle,1353,1,2000,6000
571,18552,1,RUN1-8,287,339,Source hit,1,1,1,Stimuli\cookiecutter.jpg,Right,Kitchen,1170,1,6000,4000
572,18552,1,RUN1-9,339,0,Source hit,1,1,1,Stimuli\glassescase.jpg,Left,Clothing,1568,1,4000,6000
573,18552,1,RUN1-10,0,0,Source hit,1,1,1,Stimuli\musicsheet.jpg,Left,Musical instrument,1755,1,6000,6000
574,18552,1,RUN1-11,0,295,Source hit,1,1,1,Stimuli\scotchtape.jpg,Right,Stationary,970,1,6000,6000
575,18552,1,RUN1-12,295,576,Source hit,1,1,1,Stimuli\partyhat.jpg,Right,Decorations & Gift,1597,1,6000,2000
576,18552,1,RUN1-13,576,0,Source hit,1,1,1,Stimuli\womenwashroomsign.jpg,Left,Building infrastructure,2151,1,2000,6000
577,18552,1,RUN1-14,0,0,Source hit,1,1,1,Stimuli\mushroom01.jpg,Left,Food,1377,1,6000,2000
578,18552,1,RUN1-15,0,198,miss,4,0,0,Stimuli\payphone.jpg,Left,Electronics,2144,1,2000,6000
579,18552,1,RUN1-16,198,0,Source hit,1,1,1,Stimuli\audiocablesplitter.jpg,Left,Electronics,1389,1,6000,4000
580,18552,1,RUN1-17,0,0,Source hit,1,1,1,Stimuli\speedball.jpg,Left,Outdoor & sport,1520,1,4000,4000
581,18552,1,RUN1-18,0,0,Source hit,1,1,1,Stimuli\postitnote.jpg,Left,Stationary,1399,1,4000,2000
582,18552,1,RUN1-19,0,268,Source hit,1,1,1,Stimuli\icebucket.jpg,Right,Kitchen,2659,1,2000,6000
583,18552,1,RUN1-20,268,282,Source miss,3,0,1,Stimuli\flyswatter.jpg,Left,Household article,1909,1,6000,2000
584,18552,1,RUN1-21,282,375,Source miss,3,0,1,Stimuli\racquetballracket.jpg,Right,Outdoor & sport,2666,1,2000,2000
585,18552,1,RUN1-22,375,290,Source hit,1,1,1,Stimuli\pilgrimhat.jpg,Right,Clothing,2204,1,2000,4000
586,18552,1,RUN1-23,290,396,Source hit,1,1,1,Stimuli\gift01.jpg,Left,Decorations & Gift,2342,1,4000,2000
587,18552,1,RUN1-24,396,294,Source hit,1,1,1,Stimuli\radiator.jpg,Right,Building infrastructure,1252,1,2000,6000
588,18552,1,RUN1-25,294,0,Source hit,1,1,1,Stimuli\bumpercar.jpg,Left,Vehicle,897,1,6000,2000
589,18552,1,RUN1-26,0,350,No response,0,0,0,Stimuli\poloshirt.jpg,Left,Clothing,0,1,2000,2000
590,18552,1,RUN1-27,350,0,Source hit,1,1,1,Stimuli\sravelmug.jpg,Left,Kitchen,1067,1,2000,6000
591,18552,1,RUN1-28,0,290,Source hit,1,1,1,Stimuli\key07.jpg,Right,Household article,2991,1,6000,6000
592,18552,1,RUN1-29,290,407,Source hit,1,1,1,Stimuli\gearshift.jpg,Right,Vehicle,1215,1,6000,6000
593,18552,1,RUN1-30,407,0,Source hit,1,1,1,Stimuli\plasticgallon.jpg,Left,Household article,1599,1,6000,6000
594,18552,1,RUN1-31,0,474,Source hit,1,1,1,Stimuli\bassguitar.jpg,Right,Musical instrument,2351,1,6000,2000
595,18552,1,RUN1-32,474,0,Source miss,3,0,1,Stimuli\rearviewmirror.jpg,Left,Vehicle,2007,1,2000,4000
596,18552,1,RUN1-33,0,0,Source hit,1,1,1,Stimuli\8ball.jpg,Left,Game & entertainment,1267,1,4000,2000
597,18552,1,RUN1-34,0,379,Source hit,1,1,1,Stimuli\oneholepunch.jpg,Right,Stationary,1509,1,2000,4000
598,18552,1,RUN1-35,379,0,Source hit,1,1,1,Stimuli\portapotty.jpg,Left,Building infrastructure,1880,1,4000,4000
599,18552,1,RUN1-36,0,0,Source hit,1,1,1,Stimuli\aceofdiamond.jpg,Left,Game & entertainment,1212,1,4000,4000
600,18552,1,RUN1-37,0,0,Source hit,1,1,1,Stimuli\crumpledpaper.jpg,Left,Stationary,952,1,4000,4000
601,18552,1,RUN1-38,0,304,Source missatribution,2,0,1,Stimuli\fireextinguisher01.jpg,Right,Household article,2416,1,4000,4000
602,18552,1,RUN1-39,304,248,Source hit,1,1,1,Stimuli\remotecontrol04.jpg,Right,Electronics,1075,1,4000,6000
603,18552,1,RUN1-40,248,459,Source hit,1,1,1,Stimuli\springroll.jpg,Right,Food,1233,1,6000,4000
604,18552,1,RUN1-41,459,474,Source hit,1,1,1,Stimuli\ball02.jpg,Right,Game & entertainment,1757,1,4000,2000
605,18552,1,RUN1-42,474,438,Source hit,1,1,1,Stimuli\slidetray.jpg,Right,Electronics,1315,1,2000,2000
606,18552,1,RUN1-43,438,0,Source missatribution,2,0,1,Stimuli\guitarcase.jpg,Left,Musical instrument,1891,1,2000,2000
607,18552,1,RUN1-44,0,292,Source hit,1,1,1,Stimuli\bridge.jpg,Right,Building infrastructure,1165,1,2000,4000
608,18552,1,RUN1-45,292,244,Source hit,1,1,1,Stimuli\salsa.jpg,Left,Food,1135,1,4000,6000
609,18552,1,RUN1-46,244,365,Source hit,1,1,1,Stimuli\saxophone.jpg,Right,Musical instrument,1091,1,6000,4000
610,18552,1,RUN1-47,365,328,Source hit,1,1,1,Stimuli\airhockeytable.jpg,Right,Game & entertainment,1038,1,4000,4000
611,18552,1,RUN1-48,328,314,Source missatribution,2,0,1,Stimuli\snowman.jpg,Left,Outdoor & sport,2651,1,4000,2000
612,18552,2,RUN2-2,243,305,Source missatribution,2,0,1,Stimuli\strawberry.jpg,Left,Food,1281,4,4000,6000
613,18552,2,RUN2-3,305,470,Source hit,1,1,1,Stimuli\chessboard.jpg,Left,Game & entertainment,801,4,6000,2000
614,18552,2,RUN2-4,470,432,Source hit,1,1,1,Stimuli\scrubbingbrush05b.jpg,Left,Household article,1018,4,2000,2000
615,18552,2,RUN2-5,432,360,Source hit,1,1,1,Stimuli\exercisebench.jpg,Left,Outdoor & sport,1027,4,2000,4000
616,18552,2,RUN2-6,360,266,Source hit,1,1,1,Stimuli\wallet02a.jpg,Left,Clothing,857,4,4000,6000
617,18552,2,RUN2-7,266,355,Source hit,1,1,1,Stimuli\crosscountryski.jpg,Left,Outdoor & sport,1606,4,6000,2000
618,18552,2,RUN2-8,355,404,Source hit,1,1,1,Stimuli\jewelrybox01b.jpg,Left,Decorations & Gift,909,4,2000,2000
619,18552,2,RUN2-9,404,366,Source hit,1,1,1,Stimuli\electricoutlet.jpg,Right,Electronics,1006,4,2000,2000
620,18552,2,RUN2-10,366,282,Source hit,1,1,1,Stimuli\wire.jpg,Left,Electronics,2157,4,2000,6000
621,18552,2,RUN2-11,282,383,Source hit,1,1,1,Stimuli\jesusstatue.jpg,Right,Decorations & Gift,693,4,6000,2000
622,18552,2,RUN2-12,383,382,Source hit,1,1,1,Stimuli\srophy01.jpg,Left,Decorations & Gift,931,4,2000,4000
623,18552,2,RUN2-13,382,286,Source hit,1,1,1,Stimuli\shread02.jpg,Left,Household article,1059,4,4000,6000
624,18552,2,RUN2-14,286,291,Source hit,1,1,1,Stimuli\barbedwire01.jpg,Right,Building infrastructure,1332,4,6000,4000
625,18552,2,RUN2-15,291,320,Source hit,1,1,1,Stimuli\battery02b.jpg,Left,Electronics,1374,4,4000,4000
626,18552,2,RUN2-16,320,357,Source hit,1,1,1,Stimuli\recorder04.jpg,Right,Musical instrument,957,4,4000,4000
627,18552,2,RUN2-17,357,338,Source hit,1,1,1,Stimuli\petcarrier.jpg,Right,Household article,2092,4,4000,4000
628,18552,2,RUN2-18,338,410,Source hit,1,1,1,Stimuli\worldmap.jpg,Left,Stationary,869,4,4000,4000
629,18552,2,RUN2-19,410,283,Source hit,1,1,1,Stimuli\chessknight03a.jpg,Left,Game & entertainment,897,4,4000,4000
630,18552,2,RUN2-20,283,371,Source hit,1,1,1,Stimuli\cigarette.jpg,Right,Game & entertainment,1120,4,4000,2000
631,18552,2,RUN2-21,371,395,Source hit,1,1,1,Stimuli\mug05.jpg,Right,Kitchen,628,4,2000,4000
632,18552,2,RUN2-22,395,306,Source hit,1,1,1,Stimuli\schoolbus.jpg,Right,Vehicle,1814,4,4000,6000
633,18552,2,RUN2-23,306,362,Source hit,1,1,1,Stimuli\belt02a.jpg,Right,Clothing,2526,4,6000,2000
634,18552,2,RUN2-24,362,371,Source hit,1,1,1,Stimuli\doublebass.jpg,Left,Musical instrument,788,4,2000,2000
635,18552,2,RUN2-25,371,246,Source hit,1,1,1,Stimuli\coconut.jpg,Right,Food,696,4,2000,6000
636,18552,2,RUN2-26,246,280,Source hit,1,1,1,Stimuli\cigar.jpg,Right,Game & entertainment,724,4,6000,4000
637,18552,2,RUN2-27,280,268,Source hit,1,1,1,Stimuli\mug01.jpg,Right,Kitchen,958,4,4000,6000
638,18552,2,RUN2-28,268,252,Source hit,1,1,1,Stimuli\windshieldwasherfluid.jpg,Right,Household article,1280,4,6000,6000
639,18552,2,RUN2-29,252,332,Source hit,1,1,1,Stimuli\cakeplatter.jpg,Left,Kitchen,827,4,6000,6000
640,18552,2,RUN2-30,332,620,Source hit,1,1,1,Stimuli\electricdrumset.jpg,Right,Musical instrument,784,4,6000,2000
641,18552,2,RUN2-31,620,431,Source hit,1,1,1,Stimuli\mango01.jpg,Left,Food,924,4,2000,2000
642,18552,2,RUN2-32,431,294,Source hit,1,1,1,Stimuli\windturbine.jpg,Left,Building infrastructure,1102,4,2000,6000
643,18552,2,RUN2-33,294,258,Source hit,1,1,1,Stimuli\fence02.jpg,Right,Building infrastructure,887,4,6000,6000
644,18552,2,RUN2-34,258,559,Source hit,1,1,1,Stimuli\shumbtack02a.jpg,Right,Stationary,762,4,6000,4000
645,18552,2,RUN2-35,559,307,Source hit,1,1,1,Stimuli\sricornhat.jpg,Right,Clothing,1232,4,4000,4000
646,18552,2,RUN2-36,307,298,Source hit,1,1,1,Stimuli\cola.jpg,Right,Food,869,4,4000,4000
647,18552,2,RUN2-37,298,302,Source hit,1,1,1,Stimuli\bicycle.jpg,Right,Outdoor & sport,1004,4,4000,2000
648,18552,2,RUN2-38,302,280,Source hit,1,1,1,Stimuli\cherrypicker.jpg,Left,Vehicle,1406,4,2000,2000
649,18552,2,RUN2-39,280,320,Source hit,1,1,1,Stimuli\pitcher02b.jpg,Left,Kitchen,1653,4,2000,6000
650,18552,2,RUN2-40,320,242,Source hit,1,1,1,Stimuli\saxisign.jpg,Left,Vehicle,946,4,6000,4000
651,18552,2,RUN2-41,242,392,Source hit,1,1,1,Stimuli\fountainpen.jpg,Left,Stationary,821,4,4000,2000
652,18552,2,RUN2-42,392,248,Source hit,1,1,1,Stimuli\sractor.jpg,Right,Vehicle,730,4,2000,6000
653,18552,2,RUN2-43,248,461,No response,0,0,0,Stimuli\sshirt.jpg,Left,Clothing,0,4,6000,2000
654,18552,2,RUN2-44,461,285,Source hit,1,1,1,Stimuli\srafficlight.jpg,Left,Building infrastructure,713,4,2000,4000
655,18552,2,RUN2-45,285,248,Source hit,1,1,1,Stimuli\binder03b.jpg,Right,Stationary,1125,4,4000,6000
656,18552,2,RUN2-46,248,251,Source hit,1,1,1,Stimuli\cornet.jpg,Left,Musical instrument,1289,4,6000,6000
657,18552,2,RUN2-47,251,398,Source hit,1,1,1,Stimuli\expansioncard.jpg,Right,Electronics,759,4,6000,6000
658,18552,2,RUN2-48,398,380,Source hit,1,1,1,Stimuli\footballhelmet.jpg,Right,Outdoor & sport,1551,4,6000,2000
659,18552,3,RUN3-2,325,446,Source hit,1,1,1,Stimuli\fork03c.jpg,Right,Kitchen,1401,3,6000,4000
660,18552,3,RUN3-3,446,405,Source hit,1,1,1,Stimuli\usbcable01a.jpg,Right,Electronics,653,3,4000,2000
661,18552,3,RUN3-4,405,449,Source hit,1,1,1,Stimuli\horseshoe.jpg,Right,Game & entertainment,733,3,2000,2000
662,18552,3,RUN3-5,449,301,Source hit,1,1,1,Stimuli\hockeystick.jpg,Right,Outdoor & sport,955,3,2000,2000
663,18552,3,RUN3-6,301,246,Source hit,1,1,1,Stimuli\boatmotor.jpg,Right,Outdoor & sport,867,3,2000,2000
664,18552,3,RUN3-7,246,305,Source hit,1,1,1,Stimuli\menwashroomsign.jpg,Right,Building infrastructure,592,3,2000,6000
665,18552,3,RUN3-8,305,294,Source hit,1,1,1,Stimuli\balalaika.jpg,Right,Musical instrument,885,3,6000,2000
666,18552,3,RUN3-9,294,264,Source hit,1,1,1,Stimuli\drum01.jpg,Right,Musical instrument,996,3,2000,4000
667,18552,3,RUN3-10,264,345,Source hit,1,1,1,Stimuli\birthdaycandle.jpg,Left,Decorations & Gift,1274,3,4000,2000
668,18552,3,RUN3-11,345,253,Source hit,1,1,1,Stimuli\lectern01.jpg,Right,Electronics,1213,3,2000,6000
669,18552,3,RUN3-12,253,298,Source hit,1,1,1,Stimuli\soccercleat01.jpg,Left,Clothing,1949,3,6000,6000
670,18552,3,RUN3-13,298,319,Source miss,3,0,1,Stimuli\plate01b.jpg,Right,Kitchen,2073,3,6000,6000
671,18552,3,RUN3-14,319,315,No response,0,0,0,Stimuli\porsche.jpg,Left,Vehicle,0,3,6000,4000
672,18552,3,RUN3-15,315,507,Source hit,1,1,1,Stimuli\flag.jpg,Right,Decorations & Gift,754,3,4000,2000
673,18552,3,RUN3-16,507,271,Source hit,1,1,1,Stimuli\ballofstring.jpg,Right,Household article,875,3,2000,6000
674,18552,3,RUN3-17,271,403,Source hit,1,1,1,Stimuli\shed02.jpg,Left,Building infrastructure,932,3,6000,4000
675,18552,3,RUN3-18,403,316,Source hit,1,1,1,Stimuli\jack.jpg,Left,Electronics,706,3,4000,4000
676,18552,3,RUN3-19,316,330,Source hit,1,1,1,Stimuli\wallclock.jpg,Left,Household article,1124,3,4000,6000
677,18552,3,RUN3-20,330,315,Source hit,1,1,1,Stimuli\cooler01.jpg,Left,Outdoor & sport,2798,3,6000,4000
678,18552,3,RUN3-21,315,268,Source hit,1,1,1,Stimuli\clarinet.jpg,Left,Musical instrument,1146,3,4000,6000
679,18552,3,RUN3-22,268,267,Source hit,1,1,1,Stimuli\safarihat.jpg,Right,Clothing,747,3,6000,4000
680,18552,3,RUN3-23,267,390,miss,4,0,0,Stimuli\shorts01.jpg,Left,Clothing,2554,3,4000,2000
681,18552,3,RUN3-24,390,238,Source hit,1,1,1,Stimuli\mirror01.jpg,Left,Decorations & Gift,841,3,2000,4000
682,18552,3,RUN3-25,238,230,Source hit,1,1,1,Stimuli\highstrikergame.jpg,Right,Game & entertainment,1353,3,4000,4000
683,18552,3,RUN3-26,230,376,Source hit,1,1,1,Stimuli\glasses01a.jpg,Right,Clothing,841,3,4000,2000
684,18552,3,RUN3-27,376,334,Source hit,1,1,1,Stimuli\broom01.jpg,Right,Household article,931,3,2000,4000
685,18552,3,RUN3-28,334,283,Source hit,1,1,1,Stimuli\seabag.jpg,Right,Food,1049,3,4000,4000
686,18552,3,RUN3-29,283,313,Source hit,1,1,1,Stimuli\windmill.jpg,Right,Building infrastructure,1016,3,4000,4000
687,18552,3,RUN3-30,313,311,Source hit,1,1,1,Stimuli\bagofpowder.jpg,Left,Food,1205,3,4000,6000
688,18552,3,RUN3-31,311,338,Source hit,1,1,1,Stimuli\shermometer02b.jpg,Left,Household article,1130,3,6000,2000
689,18552,3,RUN3-32,338,258,Source hit,1,1,1,Stimuli\waterfountain02.jpg,Left,Building infrastructure,1270,3,2000,6000
690,18552,3,RUN3-33,258,406,Source hit,1,1,1,Stimuli\sausage.jpg,Right,Food,729,3,6000,6000
691,18552,3,RUN3-34,406,338,Source hit,1,1,1,Stimuli\flask.jpg,Left,Kitchen,2709,3,6000,6000
692,18552,3,RUN3-35,338,364,Source hit,1,1,1,Stimuli\giftbow04.jpg,Right,Decorations & Gift,1893,3,6000,4000
693,18552,3,RUN3-36,364,418,Source hit,1,1,1,Stimuli\rawchicken.jpg,Left,Food,957,3,4000,2000
694,18552,3,RUN3-37,418,307,Source hit,1,1,1,Stimuli\mathcompass.jpg,Right,Stationary,1234,3,2000,4000
695,18552,3,RUN3-38,307,355,Source missatribution,2,0,1,Stimuli\pot02a.jpg,Left,Kitchen,1787,3,4000,6000
696,18552,3,RUN3-39,355,306,Source hit,1,1,1,Stimuli\steeringwheel.jpg,Right,Vehicle,1959,3,6000,6000
697,18552,3,RUN3-40,306,345,Source hit,1,1,1,Stimuli\skihelmet01.jpg,Left,Outdoor & sport,1773,3,6000,2000
698,18552,3,RUN3-41,345,383,Source missatribution,2,0,1,Stimuli\linedpaper.jpg,Right,Stationary,1295,3,2000,6000
699,18552,3,RUN3-42,383,413,Source hit,1,1,1,Stimuli\fluorescentlightbulb.jpg,Left,Electronics,886,3,6000,6000
700,18552,3,RUN3-43,413,262,Source hit,1,1,1,Stimuli\chalk.jpg,Left,Stationary,1095,3,6000,4000
701,18552,3,RUN3-44,262,728,Source hit,1,1,1,Stimuli\gamecontroller01.jpg,Left,Game & entertainment,1172,3,4000,2000
702,18552,3,RUN3-45,728,500,Source hit,1,1,1,Stimuli\papertray.jpg,Left,Stationary,946,3,2000,2000
703,18552,3,RUN3-46,500,270,Source hit,1,1,1,Stimuli\gamepiece.jpg,Left,Game & entertainment,1676,3,2000,4000
704,18552,3,RUN3-47,270,401,Source missatribution,2,0,1,Stimuli\rainstick.jpg,Left,Musical instrument,1241,3,4000,2000
705,18552,3,RUN3-48,401,279,Source hit,1,1,1,Stimuli\windshieldwiper02.jpg,Left,Vehicle,2099,3,2000,2000
706,18552,4,RUN4-2,308,352,Source miss,3,0,1,Stimuli\waterbottle01b.jpg,Left,Food,2460,2,6000,2000
707,18552,4,RUN4-3,352,429,Source hit,1,1,1,Stimuli\baseballbat.jpg,Left,Outdoor & sport,864,2,2000,2000
708,18552,4,RUN4-4,429,389,Source hit,1,1,1,Stimuli\photocopier.jpg,Left,Electronics,1181,2,2000,6000
709,18552,4,RUN4-5,389,517,Source hit,1,1,1,Stimuli\pottery.jpg,Left,Decorations & Gift,1330,2,6000,4000
710,18552,4,RUN4-6,517,321,Source hit,1,1,1,Stimuli\sumber3.jpg,Right,Game & entertainment,799,2,4000,4000
711,18552,4,RUN4-7,321,440,Source hit,1,1,1,Stimuli\shoulderpad.jpg,Right,Outdoor & sport,1021,2,4000,2000
712,18552,4,RUN4-8,440,307,Source hit,1,1,1,Stimuli\ashtray01.jpg,Left,Household article,778,2,2000,2000
713,18552,4,RUN4-9,307,369,Source hit,1,1,1,Stimuli\bag.jpg,Left,Stationary,1024,2,2000,4000
714,18552,4,RUN4-10,369,401,Source hit,1,1,1,Stimuli\christmasball.jpg,Left,Decorations & Gift,758,2,4000,2000
715,18552,4,RUN4-11,401,346,Source missatribution,2,0,1,Stimuli\wagonwheel.jpg,Left,Vehicle,2181,2,2000,4000
716,18552,4,RUN4-12,346,336,Source hit,1,1,1,Stimuli\raspberry01.jpg,Right,Food,1520,2,4000,6000
717,18552,4,RUN4-13,336,401,Source hit,1,1,1,Stimuli\gutteranddrainpipe.jpg,Left,Building infrastructure,945,2,6000,6000
718,18552,4,RUN4-14,401,505,Source hit,1,1,1,Stimuli\frisbee.jpg,Right,Outdoor & sport,950,2,6000,2000
719,18552,4,RUN4-15,505,306,Source hit,1,1,1,Stimuli\macaroni01.jpg,Right,Food,1186,2,2000,4000
720,18552,4,RUN4-16,306,470,Source hit,1,1,1,Stimuli\pacifier02d.jpg,Right,Game & entertainment,938,2,4000,2000
721,18552,4,RUN4-17,470,344,Source hit,1,1,1,Stimuli\fonduefork01.jpg,Right,Kitchen,1693,2,2000,4000
722,18552,4,RUN4-18,344,325,Source hit,1,1,1,Stimuli\ruins.jpg,Left,Building infrastructure,965,2,4000,4000
723,18552,4,RUN4-19,325,327,Source hit,1,1,1,Stimuli\gong.jpg,Right,Musical instrument,867,2,4000,4000
724,18552,4,RUN4-20,327,263,Source hit,1,1,1,Stimuli\sableknife02.jpg,Left,Kitchen,1436,2,4000,6000
725,18552,4,RUN4-21,263,288,Source hit,1,1,1,Stimuli\honeycomb.jpg,Left,Food,1118,2,6000,6000
726,18552,4,RUN4-22,288,378,Source hit,1,1,1,Stimuli\mrpotatohead.jpg,Left,Game & entertainment,1079,2,6000,4000
727,18552,4,RUN4-23,378,394,Source miss,3,0,1,Stimuli\rollerblade.jpg,Left,Outdoor & sport,2590,2,4000,4000
728,18552,4,RUN4-24,394,384,Source hit,1,1,1,Stimuli\moccasin.jpg,Right,Clothing,849,2,4000,2000
729,18552,4,RUN4-25,384,329,Source hit,1,1,1,Stimuli\styrofoamcup.jpg,Left,Kitchen,1133,2,2000,6000
730,18552,4,RUN4-26,329,293,Source hit,1,1,1,Stimuli\shimble.jpg,Right,Household article,845,2,6000,4000
731,18552,4,RUN4-27,293,385,Source hit,1,1,1,Stimuli\marble.jpg,Left,Game & entertainment,874,2,4000,2000
732,18552,4,RUN4-28,385,300,Source hit,1,1,1,Stimuli\grill.jpg,Right,Kitchen,835,2,2000,6000
733,18552,4,RUN4-29,300,1066,Source hit,1,1,1,Stimuli\desktopcomputer.jpg,Right,Electronics,676,2,6000,2000
734,18552,4,RUN4-30,1066,442,Source hit,1,1,1,Stimuli\metronome.jpg,Right,Musical instrument,723,2,2000,2000
735,18552,4,RUN4-31,442,366,Source hit,1,1,1,Stimuli\dumptruck.jpg,Right,Vehicle,1188,2,2000,6000
736,18552,4,RUN4-32,366,287,Source hit,1,1,1,Stimuli\wheelchair.jpg,Right,Vehicle,1275,2,6000,6000
737,18552,4,RUN4-33,287,499,Source hit,1,1,1,Stimuli\spacerover.jpg,Left,Vehicle,1172,2,6000,2000
738,18552,4,RUN4-34,499,355,Source hit,1,1,1,Stimuli\safetyglasses.jpg,Left,Clothing,1039,2,2000,2000
739,18552,4,RUN4-35,355,261,Source hit,1,1,1,Stimuli\sponge01.jpg,Right,Household article,1696,2,2000,6000
740,18552,4,RUN4-36,261,282,Source hit,1,1,1,Stimuli\ruler04.jpg,Right,Stationary,888,2,6000,4000
741,18552,4,RUN4-37,282,302,Source hit,1,1,1,Stimuli\scissors01.jpg,Left,Stationary,2102,2,4000,2000
742,18552,4,RUN4-38,302,288,Source hit,1,1,1,Stimuli\road02.jpg,Right,Building infrastructure,983,2,2000,6000
743,18552,4,RUN4-39,288,483,Source hit,1,1,1,Stimuli\parkingmeter.jpg,Right,Building infrastructure,826,2,6000,4000
744,18552,4,RUN4-40,483,372,Source hit,1,1,1,Stimuli\amphora.jpg,Right,Decorations & Gift,924,2,4000,2000
745,18552,4,RUN4-41,372,301,Source hit,1,1,1,Stimuli\lei.jpg,Right,Decorations & Gift,990,2,2000,4000
746,18552,4,RUN4-42,301,311,Source hit,1,1,1,Stimuli\microphone01.jpg,Left,Electronics,1096,2,4000,4000
747,18552,4,RUN4-43,311,315,Source hit,1,1,1,Stimuli\cabasa.jpg,Left,Musical instrument,1096,2,4000,6000
748,18552,4,RUN4-44,315,406,Source hit,1,1,1,Stimuli\keyboard.jpg,Left,Musical instrument,1821,2,6000,2000
749,18552,4,RUN4-45,406,301,Source hit,1,1,1,Stimuli\staple.jpg,Right,Stationary,837,2,2000,6000
750,18552,4,RUN4-46,301,517,Source hit,1,1,1,Stimuli\mousetrap.jpg,Left,Household article,1021,2,6000,6000
751,18552,4,RUN4-47,517,346,Source hit,1,1,1,Stimuli\jeans01.jpg,Right,Clothing,1011,2,6000,4000
752,18552,4,RUN4-48,346,305,Source hit,1,1,1,Stimuli\carbattery.jpg,Right,Electronics,940,2,4000,6000
753,19308,1,RUN1-2,654,289,Source hit,1,1,1,Stimuli\plasticgallon.jpg,Left,Household article,1951,1,2000,6000
754,19308,1,RUN1-3,289,659,Source hit,1,1,1,Stimuli\poloshirt.jpg,Left,Clothing,1120,1,6000,2000
755,19308,1,RUN1-4,659,263,Source hit,1,1,1,Stimuli\pilgrimhat.jpg,Right,Clothing,2220,1,2000,4000
756,19308,1,RUN1-5,263,514,Source hit,1,1,1,Stimuli\postitnote.jpg,Left,Stationary,891,1,4000,2000
757,19308,1,RUN1-6,514,263,Source hit,1,1,1,Stimuli\oneholepunch.jpg,Right,Stationary,1972,1,2000,4000
758,19308,1,RUN1-7,263,262,Source hit,1,1,1,Stimuli\salsa.jpg,Left,Food,1303,1,4000,6000
759,19308,1,RUN1-8,262,368,Source hit,1,1,1,Stimuli\flyswatter.jpg,Left,Household article,1051,1,6000,2000
760,19308,1,RUN1-9,368,284,miss,4,0,0,Stimuli\scotchtape.jpg,Right,Stationary,1111,1,2000,6000
761,19308,1,RUN1-10,284,304,miss,4,0,0,Stimuli\bassguitar.jpg,Right,Musical instrument,744,1,6000,2000
762,19308,1,RUN1-11,304,402,Source hit,1,1,1,Stimuli\button01.jpg,Right,Clothing,1676,1,2000,2000
763,19308,1,RUN1-12,402,261,miss,4,0,0,Stimuli\key07.jpg,Right,Household article,1280,1,2000,6000
764,19308,1,RUN1-13,261,265,Source missatribution,2,0,1,Stimuli\icebucket.jpg,Right,Kitchen,694,1,6000,6000
765,19308,1,RUN1-14,265,299,Source missatribution,2,0,1,Stimuli\crumpledpaper.jpg,Left,Stationary,1929,1,6000,4000
766,19308,1,RUN1-15,299,267,miss,4,0,0,Stimuli\payphone.jpg,Left,Electronics,664,1,4000,6000
767,19308,1,RUN1-16,267,261,miss,4,0,0,Stimuli\saxophone.jpg,Right,Musical instrument,1002,1,6000,4000
768,19308,1,RUN1-17,261,280,Source hit,1,1,1,Stimuli\sravelmug.jpg,Left,Kitchen,1173,1,4000,6000
769,19308,1,RUN1-18,280,268,miss,4,0,0,Stimuli\glassescase.jpg,Left,Clothing,1640,1,6000,6000
770,19308,1,RUN1-19,268,357,Source hit,1,1,1,Stimuli\8ball.jpg,Left,Game & entertainment,1162,1,6000,2000
771,19308,1,RUN1-20,357,497,Source missatribution,2,0,1,Stimuli\radiator.jpg,Right,Building infrastructure,1167,1,2000,6000
772,19308,1,RUN1-21,497,526,Source hit,1,1,1,Stimuli\bowlingball.jpg,Right,Outdoor & sport,1438,1,6000,2000
773,19308,1,RUN1-22,526,232,Source hit,1,1,1,Stimuli\rowboat.jpg,Right,Vehicle,1250,1,2000,6000
774,19308,1,RUN1-23,232,257,Source hit,1,1,1,Stimuli\racquetballracket.jpg,Right,Outdoor & sport,2374,1,6000,2000
775,19308,1,RUN1-24,257,310,Source hit,1,1,1,Stimuli\snowman.jpg,Left,Outdoor & sport,1022,1,2000,2000
776,19308,1,RUN1-25,310,241,Source hit,1,1,1,Stimuli\gearshift.jpg,Right,Vehicle,1946,1,2000,6000
777,19308,1,RUN1-26,241,382,Source miss,3,0,1,Stimuli\guitarcase.jpg,Left,Musical instrument,1584,1,6000,2000
778,19308,1,RUN1-27,382,283,Source hit,1,1,1,Stimuli\airhockeytable.jpg,Right,Game & entertainment,914,1,2000,4000
779,19308,1,RUN1-28,283,505,miss,4,0,0,Stimuli\fireextinguisher01.jpg,Right,Household article,975,1,4000,4000
780,19308,1,RUN1-29,505,240,miss,4,0,0,Stimuli\rearviewmirror.jpg,Left,Vehicle,908,1,4000,4000
781,19308,1,RUN1-30,240,216,Source hit,1,1,1,Stimuli\aceofdiamond.jpg,Left,Game & entertainment,951,1,4000,4000
782,19308,1,RUN1-31,216,442,No response,0,0,0,Stimuli\horsefigurine.jpg,Left,Decorations & Gift,0,1,4000,4000
783,19308,1,RUN1-32,442,236,miss,4,0,0,Stimuli\espressomachine.jpg,Left,Kitchen,678,1,4000,6000
784,19308,1,RUN1-33,236,288,miss,4,0,0,Stimuli\mushroom01.jpg,Left,Food,1046,1,6000,2000
785,19308,1,RUN1-34,288,279,Source hit,1,1,1,Stimuli\giftbow02b.jpg,Right,Decorations & Gift,1547,1,2000,4000
786,19308,1,RUN1-35,279,245,miss,4,0,0,Stimuli\remotecontrol04.jpg,Right,Electronics,826,1,4000,6000
787,19308,1,RUN1-36,245,212,miss,4,0,0,Stimuli\musicsheet.jpg,Left,Musical instrument,2019,1,6000,6000
788,19308,1,RUN1-37,212,416,Source missatribution,2,0,1,Stimuli\gift01.jpg,Left,Decorations & Gift,1441,1,6000,2000
789,19308,1,RUN1-38,416,237,miss,4,0,0,Stimuli\womenwashroomsign.jpg,Left,Building infrastructure,729,1,2000,6000
790,19308,1,RUN1-39,237,278,Source miss,3,0,1,Stimuli\portapotty.jpg,Left,Building infrastructure,1821,1,6000,4000
791,19308,1,RUN1-40,278,341,miss,4,0,0,Stimuli\bumpercar.jpg,Left,Vehicle,829,1,4000,2000
792,19308,1,RUN1-41,341,238,miss,4,0,0,Stimuli\audiocablesplitter.jpg,Left,Electronics,1381,1,2000,4000
793,19308,1,RUN1-42,238,259,Source hit,1,1,1,Stimuli\springroll.jpg,Right,Food,798,1,4000,4000
794,19308,1,RUN1-43,259,222,Source hit,1,1,1,Stimuli\blackolive.jpg,Right,Food,1699,1,4000,6000
795,19308,1,RUN1-44,222,275,Source missatribution,2,0,1,Stimuli\cookiecutter.jpg,Right,Kitchen,995,1,6000,4000
796,19308,1,RUN1-45,275,361,miss,4,0,0,Stimuli\ball02.jpg,Right,Game & entertainment,1277,1,4000,2000
797,19308,1,RUN1-46,361,378,miss,4,0,0,Stimuli\bridge.jpg,Right,Building infrastructure,1222,1,2000,4000
798,19308,1,RUN1-47,378,253,Source hit,1,1,1,Stimuli\speedball.jpg,Left,Outdoor & sport,1518,1,4000,4000
799,19308,1,RUN1-48,253,414,Source miss,3,0,1,Stimuli\partyhat.jpg,Right,Decorations & Gift,1825,1,4000,2000
800,19308,2,RUN2-2,284,263,miss,4,0,0,Stimuli\sricornhat.jpg,Right,Clothing,687,3,4000,4000
801,19308,2,RUN2-3,263,318,miss,4,0,0,Stimuli\binder03b.jpg,Right,Stationary,1494,3,4000,6000
802,19308,2,RUN2-4,318,525,miss,4,0,0,Stimuli\doublebass.jpg,Left,Musical instrument,725,3,6000,2000
803,19308,2,RUN2-5,525,245,miss,4,0,0,Stimuli\windturbine.jpg,Left,Building infrastructure,425,3,2000,6000
804,19308,2,RUN2-6,245,322,Source missatribution,2,0,1,Stimuli\srafficlight.jpg,Left,Building infrastructure,320,3,6000,4000
805,19308,2,RUN2-7,322,281,miss,4,0,0,Stimuli\strawberry.jpg,Left,Food,546,3,4000,6000
806,19308,2,RUN2-8,281,297,miss,4,0,0,Stimuli\exercisebench.jpg,Left,Outdoor & sport,936,3,6000,4000
807,19308,2,RUN2-9,297,254,miss,4,0,0,Stimuli\mug01.jpg,Right,Kitchen,1017,3,4000,6000
808,19308,2,RUN2-10,254,398,Source hit,1,1,1,Stimuli\crosscountryski.jpg,Left,Outdoor & sport,710,3,6000,2000
809,19308,2,RUN2-11,398,239,Source miss,3,0,1,Stimuli\expansioncard.jpg,Right,Electronics,952,3,2000,6000
810,19308,2,RUN2-12,239,458,Source miss,3,0,1,Stimuli\cherrypicker.jpg,Left,Vehicle,410,3,6000,2000
811,19308,2,RUN2-13,458,314,Source miss,3,0,1,Stimuli\fountainpen.jpg,Left,Stationary,339,3,2000,2000
812,19308,2,RUN2-14,314,263,Source miss,3,0,1,Stimuli\windshieldwasherfluid.jpg,Right,Household article,775,3,2000,6000
813,19308,2,RUN2-15,263,245,Source missatribution,2,0,1,Stimuli\schoolbus.jpg,Right,Vehicle,916,3,6000,6000
814,19308,2,RUN2-16,245,303,Source hit,1,1,1,Stimuli\electricdrumset.jpg,Right,Musical instrument,989,3,6000,2000
815,19308,2,RUN2-17,303,304,Source missatribution,2,0,1,Stimuli\footballhelmet.jpg,Right,Outdoor & sport,876,3,2000,2000
816,19308,2,RUN2-18,304,239,Source miss,3,0,1,Stimuli\shread02.jpg,Left,Household article,465,3,2000,6000
817,19308,2,RUN2-19,239,332,Source miss,3,0,1,Stimuli\chessboard.jpg,Left,Game & entertainment,1310,3,6000,2000
818,19308,2,RUN2-20,332,300,Source hit,1,1,1,Stimuli\electricoutlet.jpg,Right,Electronics,1086,3,2000,2000
819,19308,2,RUN2-21,300,230,miss,4,0,0,Stimuli\mug05.jpg,Right,Kitchen,748,3,2000,4000
820,19308,2,RUN2-22,230,295,Source hit,1,1,1,Stimuli\belt02a.jpg,Right,Clothing,763,3,4000,2000
821,19308,2,RUN2-23,295,262,miss,4,0,0,Stimuli\mango01.jpg,Left,Food,815,3,2000,2000
822,19308,2,RUN2-24,262,223,miss,4,0,0,Stimuli\cigar.jpg,Right,Game & entertainment,672,3,2000,4000
823,19308,2,RUN2-25,223,282,Source missatribution,2,0,1,Stimuli\jewelrybox01b.jpg,Left,Decorations & Gift,308,3,4000,2000
824,19308,2,RUN2-26,282,307,Source miss,3,0,1,Stimuli\cigarette.jpg,Right,Game & entertainment,491,3,2000,2000
825,19308,2,RUN2-27,307,258,miss,4,0,0,Stimuli\scrubbingbrush05b.jpg,Left,Household article,687,3,2000,2000
826,19308,2,RUN2-28,258,212,Source miss,3,0,1,Stimuli\cornet.jpg,Left,Musical instrument,318,3,2000,6000
827,19308,2,RUN2-29,212,379,Source missatribution,2,0,1,Stimuli\cola.jpg,Right,Food,508,3,6000,4000
828,19308,2,RUN2-30,379,264,Source hit,1,1,1,Stimuli\shumbtack02a.jpg,Right,Stationary,620,3,4000,4000
829,19308,2,RUN2-31,264,371,miss,4,0,0,Stimuli\sshirt.jpg,Left,Clothing,1037,3,4000,2000
830,19308,2,RUN2-32,371,227,Source missatribution,2,0,1,Stimuli\bracelet04.jpg,Right,Decorations & Gift,1777,3,2000,4000
831,19308,2,RUN2-33,227,244,Source hit,1,1,1,Stimuli\sractor.jpg,Right,Vehicle,315,3,4000,6000
832,19308,2,RUN2-34,244,261,miss,4,0,0,Stimuli\saxisign.jpg,Left,Vehicle,499,3,6000,4000
833,19308,2,RUN2-35,261,272,miss,4,0,0,Stimuli\battery02b.jpg,Left,Electronics,339,3,4000,4000
834,19308,2,RUN2-36,272,216,miss,4,0,0,Stimuli\pitcher02b.jpg,Left,Kitchen,555,3,4000,6000
835,19308,2,RUN2-37,216,292,miss,4,0,0,Stimuli\fence02.jpg,Right,Building infrastructure,753,3,6000,6000
836,19308,2,RUN2-38,292,323,miss,4,0,0,Stimuli\worldmap.jpg,Left,Stationary,1021,3,6000,4000
837,19308,2,RUN2-39,323,240,Source miss,3,0,1,Stimuli\bicycle.jpg,Right,Outdoor & sport,1035,3,4000,2000
838,19308,2,RUN2-40,240,265,Source miss,3,0,1,Stimuli\wire.jpg,Left,Electronics,957,3,2000,6000
839,19308,2,RUN2-41,265,249,Source hit,1,1,1,Stimuli\cakeplatter.jpg,Left,Kitchen,782,3,6000,6000
840,19308,2,RUN2-42,249,268,Source hit,1,1,1,Stimuli\coconut.jpg,Right,Food,998,3,6000,6000
841,19308,2,RUN2-43,268,283,miss,4,0,0,Stimuli\petcarrier.jpg,Right,Household article,1717,3,6000,4000
842,19308,2,RUN2-44,283,228,Source hit,1,1,1,Stimuli\wallet02a.jpg,Left,Clothing,319,3,4000,6000
843,19308,2,RUN2-45,228,384,miss,4,0,0,Stimuli\jesusstatue.jpg,Right,Decorations & Gift,308,3,6000,2000
844,19308,2,RUN2-46,384,267,Source missatribution,2,0,1,Stimuli\recorder04.jpg,Right,Musical instrument,510,3,2000,4000
845,19308,2,RUN2-47,267,265,Source miss,3,0,1,Stimuli\chessknight03a.jpg,Left,Game & entertainment,1146,3,4000,4000
846,19308,2,RUN2-48,265,250,Source missatribution,2,0,1,Stimuli\barbedwire01.jpg,Right,Building infrastructure,697,3,4000,4000
847,19308,3,RUN3-2,294,268,Source missatribution,2,0,1,Stimuli\clarinet.jpg,Left,Musical instrument,1080,2,4000,6000
848,19308,3,RUN3-3,268,306,miss,4,0,0,Stimuli\ballofstring.jpg,Right,Household article,842,2,6000,6000
849,19308,3,RUN3-4,306,401,miss,4,0,0,Stimuli\shorts01.jpg,Left,Clothing,2970,2,6000,2000
850,19308,3,RUN3-5,401,244,Source hit,1,1,1,Stimuli\flask.jpg,Left,Kitchen,1076,2,2000,6000
851,19308,3,RUN3-6,244,364,miss,4,0,0,Stimuli\balalaika.jpg,Right,Musical instrument,894,2,6000,2000
852,19308,3,RUN3-7,364,250,miss,4,0,0,Stimuli\wallclock.jpg,Left,Household article,430,2,2000,6000
853,19308,3,RUN3-8,250,248,miss,4,0,0,Stimuli\fluorescentlightbulb.jpg,Left,Electronics,579,2,6000,6000
854,19308,3,RUN3-9,248,313,Source hit,1,1,1,Stimuli\gamecontroller01.jpg,Left,Game & entertainment,795,2,6000,2000
855,19308,3,RUN3-10,313,485,Source hit,1,1,1,Stimuli\boatmotor.jpg,Right,Outdoor & sport,874,2,2000,2000
856,19308,3,RUN3-11,485,241,Source hit,1,1,1,Stimuli\jack.jpg,Left,Electronics,1141,2,2000,4000
857,19308,3,RUN3-12,241,352,Source hit,1,1,1,Stimuli\rainstick.jpg,Left,Musical instrument,1121,2,4000,2000
858,19308,3,RUN3-13,352,251,miss,4,0,0,Stimuli\shed02.jpg,Left,Building infrastructure,2250,2,2000,4000
859,19308,3,RUN3-14,251,345,miss,4,0,0,Stimuli\horseshoe.jpg,Right,Game & entertainment,661,2,4000,2000
860,19308,3,RUN3-15,345,325,Source hit,1,1,1,Stimuli\porsche.jpg,Left,Vehicle,1013,2,2000,4000
861,19308,3,RUN3-16,325,397,miss,4,0,0,Stimuli\hockeystick.jpg,Right,Outdoor & sport,1269,2,4000,2000
862,19308,3,RUN3-17,397,252,Source hit,1,1,1,Stimuli\seabag.jpg,Right,Food,1254,2,2000,4000
863,19308,3,RUN3-18,252,220,Source hit,1,1,1,Stimuli\giftbow04.jpg,Right,Decorations & Gift,870,2,4000,4000
864,19308,3,RUN3-19,220,327,miss,4,0,0,Stimuli\shermometer02b.jpg,Left,Household article,785,2,4000,2000
865,19308,3,RUN3-20,327,279,Source hit,1,1,1,Stimuli\mathcompass.jpg,Right,Stationary,2307,2,2000,4000
866,19308,3,RUN3-21,279,237,Source miss,3,0,1,Stimuli\drum01.jpg,Right,Musical instrument,1370,2,4000,4000
867,19308,3,RUN3-22,237,298,miss,4,0,0,Stimuli\skihelmet01.jpg,Left,Outdoor & sport,611,2,4000,2000
868,19308,3,RUN3-23,298,256,Source hit,1,1,1,Stimuli\menwashroomsign.jpg,Right,Building infrastructure,1866,2,2000,6000
869,19308,3,RUN3-24,256,431,miss,4,0,0,Stimuli\papertray.jpg,Left,Stationary,732,2,6000,2000
870,19308,3,RUN3-25,431,238,miss,4,0,0,Stimuli\highstrikergame.jpg,Right,Game & entertainment,873,2,2000,4000
871,19308,3,RUN3-26,238,261,miss,4,0,0,Stimuli\flag.jpg,Right,Decorations & Gift,662,2,4000,2000
872,19308,3,RUN3-27,261,221,Source hit,1,1,1,Stimuli\steeringwheel.jpg,Right,Vehicle,955,2,2000,6000
873,19308,3,RUN3-28,221,238,miss,4,0,0,Stimuli\Saillight.jpg,Right,Vehicle,2055,2,6000,6000
874,19308,3,RUN3-29,238,282,miss,4,0,0,Stimuli\usbcable01a.jpg,Right,Electronics,935,2,6000,2000
875,19308,3,RUN3-30,282,258,miss,4,0,0,Stimuli\windmill.jpg,Right,Building infrastructure,979,2,2000,4000
876,19308,3,RUN3-31,258,290,miss,4,0,0,Stimuli\cooler01.jpg,Left,Outdoor & sport,860,2,4000,4000
877,19308,3,RUN3-32,290,221,Source miss,3,0,1,Stimuli\plate01b.jpg,Right,Kitchen,1898,2,4000,6000
878,19308,3,RUN3-33,221,248,miss,4,0,0,Stimuli\chalk.jpg,Left,Stationary,1079,2,6000,4000
879,19308,3,RUN3-34,248,317,Source miss,3,0,1,Stimuli\broom01.jpg,Right,Household article,1554,2,4000,4000
880,19308,3,RUN3-35,317,243,miss,4,0,0,Stimuli\pot02a.jpg,Left,Kitchen,1009,2,4000,6000
881,19308,3,RUN3-36,243,228,miss,4,0,0,Stimuli\mirror01.jpg,Left,Decorations & Gift,2045,2,6000,4000
882,19308,3,RUN3-37,228,241,miss,4,0,0,Stimuli\sausage.jpg,Right,Food,1255,2,4000,6000
883,19308,3,RUN3-38,241,517,miss,4,0,0,Stimuli\birthdaycandle.jpg,Left,Decorations & Gift,1188,2,6000,2000
884,19308,3,RUN3-39,517,504,miss,4,0,0,Stimuli\rawchicken.jpg,Left,Food,1688,2,2000,2000
885,19308,3,RUN3-40,504,247,miss,4,0,0,Stimuli\windshieldwiper02.jpg,Left,Vehicle,744,2,2000,2000
886,19308,3,RUN3-41,247,276,Source miss,3,0,1,Stimuli\glasses01a.jpg,Right,Clothing,1347,2,2000,2000
887,19308,3,RUN3-42,276,300,miss,4,0,0,Stimuli\linedpaper.jpg,Right,Stationary,1032,2,2000,6000
888,19308,3,RUN3-43,300,248,Source hit,1,1,1,Stimuli\safarihat.jpg,Right,Clothing,957,2,6000,4000
889,19308,3,RUN3-44,248,219,miss,4,0,0,Stimuli\waterfountain02.jpg,Left,Building infrastructure,778,2,4000,6000
890,19308,3,RUN3-45,219,225,Source hit,1,1,1,Stimuli\bagofpowder.jpg,Left,Food,1336,2,6000,6000
891,19308,3,RUN3-46,225,284,miss,4,0,0,Stimuli\gamepiece.jpg,Left,Game & entertainment,987,2,6000,4000
892,19308,3,RUN3-47,284,216,miss,4,0,0,Stimuli\lectern01.jpg,Right,Electronics,717,2,4000,6000
893,19308,3,RUN3-48,216,261,miss,4,0,0,Stimuli\soccercleat01.jpg,Left,Clothing,786,2,6000,6000
894,19308,4,RUN4-2,221,244,Source missatribution,2,0,1,Stimuli\photocopier.jpg,Left,Electronics,716,4,4000,6000
895,19308,4,RUN4-3,244,353,Source missatribution,2,0,1,Stimuli\baseballbat.jpg,Left,Outdoor & sport,636,4,6000,2000
896,19308,4,RUN4-4,353,278,miss,4,0,0,Stimuli\pottery.jpg,Left,Decorations & Gift,1428,4,2000,4000
897,19308,4,RUN4-5,278,194,Source hit,1,1,1,Stimuli\jeans01.jpg,Right,Clothing,1463,4,4000,4000
898,19308,4,RUN4-6,194,216,Source missatribution,2,0,1,Stimuli\sableknife02.jpg,Left,Kitchen,472,4,4000,6000
899,19308,4,RUN4-7,216,228,Source hit,1,1,1,Stimuli\dumptruck.jpg,Right,Vehicle,714,4,6000,6000
900,19308,4,RUN4-8,228,209,miss,4,0,0,Stimuli\cabasa.jpg,Left,Musical instrument,733,4,6000,6000
901,19308,4,RUN4-9,209,245,Source hit,1,1,1,Stimuli\marble.jpg,Left,Game & entertainment,705,4,6000,2000
902,19308,4,RUN4-10,245,235,miss,4,0,0,Stimuli\sumber3.jpg,Right,Game & entertainment,891,4,2000,4000
903,19308,4,RUN4-11,235,250,miss,4,0,0,Stimuli\woodenshoe.jpg,Left,Clothing,261,4,4000,6000
904,19308,4,RUN4-12,250,319,Source hit,1,1,1,Stimuli\frisbee.jpg,Right,Outdoor & sport,820,4,6000,2000
905,19308,4,RUN4-13,319,226,Source hit,1,1,1,Stimuli\raspberry01.jpg,Right,Food,730,4,2000,6000
906,19308,4,RUN4-14,226,263,Source missatribution,2,0,1,Stimuli\microphone01.jpg,Left,Electronics,611,4,6000,4000
907,19308,4,RUN4-15,263,267,Source miss,3,0,1,Stimuli\fonduefork01.jpg,Right,Kitchen,584,4,4000,4000
908,19308,4,RUN4-16,267,310,Source miss,3,0,1,Stimuli\shoulderpad.jpg,Right,Outdoor & sport,1646,4,4000,2000
909,19308,4,RUN4-17,310,285,Source miss,3,0,1,Stimuli\macaroni01.jpg,Right,Food,313,4,2000,4000
910,19308,4,RUN4-18,285,259,Source hit,1,1,1,Stimuli\bag.jpg,Left,Stationary,667,4,4000,4000
911,19308,4,RUN4-19,259,233,miss,4,0,0,Stimuli\mousetrap.jpg,Left,Household article,487,4,4000,6000
912,19308,4,RUN4-20,233,231,miss,4,0,0,Stimuli\staple.jpg,Right,Stationary,1767,4,6000,6000
913,19308,4,RUN4-21,231,445,miss,4,0,0,Stimuli\metronome.jpg,Right,Musical instrument,370,4,6000,2000
914,19308,4,RUN4-22,445,262,miss,4,0,0,Stimuli\keyboard.jpg,Left,Musical instrument,2034,4,2000,2000
915,19308,4,RUN4-23,262,206,miss,4,0,0,Stimuli\sponge01.jpg,Right,Household article,299,4,2000,6000
916,19308,4,RUN4-24,206,239,Source missatribution,2,0,1,Stimuli\honeycomb.jpg,Left,Food,1428,4,6000,6000
917,19308,4,RUN4-25,239,342,Source hit,1,1,1,Stimuli\amphora.jpg,Right,Decorations & Gift,640,4,6000,2000
918,19308,4,RUN4-26,342,456,Source missatribution,2,0,1,Stimuli\lei.jpg,Right,Decorations & Gift,583,4,2000,4000
919,19308,4,RUN4-27,456,226,miss,4,0,0,Stimuli\wheelchair.jpg,Right,Vehicle,968,4,4000,6000
920,19308,4,RUN4-28,226,368,Source hit,1,1,1,Stimuli\desktopcomputer.jpg,Right,Electronics,669,4,6000,2000
921,19308,4,RUN4-29,368,229,Source miss,3,0,1,Stimuli\styrofoamcup.jpg,Left,Kitchen,374,4,2000,6000
922,19308,4,RUN4-30,229,348,Source hit,1,1,1,Stimuli\scissors01.jpg,Left,Stationary,1908,4,6000,2000
923,19308,4,RUN4-31,348,306,Source missatribution,2,0,1,Stimuli\spacerover.jpg,Left,Vehicle,727,4,2000,2000
924,19308,4,RUN4-32,306,350,miss,4,0,0,Stimuli\safetyglasses.jpg,Left,Clothing,683,4,2000,2000
925,19308,4,RUN4-33,350,231,Source miss,3,0,1,Stimuli\wagonwheel.jpg,Left,Vehicle,328,4,2000,4000
926,19308,4,RUN4-34,231,230,miss,4,0,0,Stimuli\grill.jpg,Right,Kitchen,1085,4,4000,6000
927,19308,4,RUN4-35,230,274,miss,4,0,0,Stimuli\gutteranddrainpipe.jpg,Left,Building infrastructure,316,4,6000,6000
928,19308,4,RUN4-36,274,235,miss,4,0,0,Stimuli\gong.jpg,Right,Musical instrument,293,4,6000,4000
929,19308,4,RUN4-37,235,251,miss,4,0,0,Stimuli\ruins.jpg,Left,Building infrastructure,799,4,4000,4000
930,19308,4,RUN4-38,251,263,Source missatribution,2,0,1,Stimuli\ashtray01.jpg,Left,Household article,937,4,4000,2000
931,19308,4,RUN4-39,263,225,Source hit,1,1,1,Stimuli\christmasball.jpg,Left,Decorations & Gift,305,4,2000,2000
932,19308,4,RUN4-40,225,235,Source hit,1,1,1,Stimuli\mrpotatohead.jpg,Left,Game & entertainment,1511,4,2000,4000
933,19308,4,RUN4-41,235,462,miss,4,0,0,Stimuli\pacifier02d.jpg,Right,Game & entertainment,763,4,4000,2000
934,19308,4,RUN4-42,462,310,Source miss,3,0,1,Stimuli\waterbottle01b.jpg,Left,Food,274,4,2000,2000
935,19308,4,RUN4-43,310,231,miss,4,0,0,Stimuli\ruler04.jpg,Right,Stationary,546,4,2000,4000
936,19308,4,RUN4-44,231,217,miss,4,0,0,Stimuli\carbattery.jpg,Right,Electronics,535,4,4000,6000
937,19308,4,RUN4-45,217,467,miss,4,0,0,Stimuli\rollerblade.jpg,Left,Outdoor & sport,1021,4,6000,4000
938,19308,4,RUN4-46,467,263,Source hit,1,1,1,Stimuli\parkingmeter.jpg,Right,Building infrastructure,851,4,4000,4000
939,19308,4,RUN4-47,263,248,Source hit,1,1,1,Stimuli\moccasin.jpg,Right,Clothing,432,4,4000,2000
940,19308,4,RUN4-48,248,191,miss,4,0,0,Stimuli\road02.jpg,Right,Building infrastructure,324,4,2000,6000
941,22802,1,RUN1-2,504,313,Source hit,1,1,1,Stimuli\portapotty.jpg,Left,Building infrastructure,1062,1,4000,4000
942,22802,1,RUN1-3,313,310,Source hit,1,1,1,Stimuli\crumpledpaper.jpg,Left,Stationary,1202,1,4000,4000
943,22802,1,RUN1-4,310,375,miss,4,0,0,Stimuli\scotchtape.jpg,Right,Stationary,1386,1,4000,6000
944,22802,1,RUN1-5,375,414,Source hit,1,1,1,Stimuli\aceofdiamond.jpg,Left,Game & entertainment,1108,1,6000,4000
945,22802,1,RUN1-6,414,585,Source hit,1,1,1,Stimuli\bowlingball.jpg,Right,Outdoor & sport,915,1,4000,2000
946,22802,1,RUN1-7,585,261,Source miss,3,0,1,Stimuli\bumpercar.jpg,Left,Vehicle,1493,1,2000,2000
947,22802,1,RUN1-8,261,266,Source hit,1,1,1,Stimuli\racquetballracket.jpg,Right,Outdoor & sport,978,1,2000,2000
948,22802,1,RUN1-9,266,295,Source hit,1,1,1,Stimuli\airhockeytable.jpg,Right,Game & entertainment,1086,1,2000,4000
949,22802,1,RUN1-10,295,317,Source hit,1,1,1,Stimuli\snowman.jpg,Left,Outdoor & sport,781,1,4000,2000
950,22802,1,RUN1-11,317,258,Source hit,1,1,1,Stimuli\key07.jpg,Right,Household article,2037,1,2000,6000
951,22802,1,RUN1-12,258,259,Source hit,1,1,1,Stimuli\remotecontrol04.jpg,Right,Electronics,1998,1,6000,6000
952,22802,1,RUN1-13,259,206,Source hit,1,1,1,Stimuli\saxophone.jpg,Right,Musical instrument,1326,1,6000,4000
953,22802,1,RUN1-14,206,370,Source missatribution,2,0,1,Stimuli\button01.jpg,Right,Clothing,1073,1,4000,2000
